condition,.thisRepN,.thisTrialN,.thisN,.thisIndex,block,trial,s1_state,response,rt,pair,
noise,0,-1,-1,0,1,0,False,no,1.2445580959320068,8,
signal,0,-1,-1,0,1,1,False,yes,0.8064789772033691,8,
signal,0,-1,-1,0,1,2,False,yes,1.041841983795166,8,
noise,0,-1,-1,0,1,3,False,no,0.9782888889312744,8,
noise,0,-1,-1,0,1,4,True,no,1.63615083694458,8,
signal,0,-1,-1,0,1,5,True,yes,1.5684070587158203,8,
signal,0,-1,-1,0,1,6,False,yes,1.1521761417388916,8,
signal,0,-1,-1,0,1,7,False,yes,1.1558220386505127,8,
noise,0,-1,-1,0,1,8,False,no,0.9240820407867432,8,
signal,0,-1,-1,0,1,9,False,yes,0.8541021347045898,8,
signal,0,-1,-1,0,1,10,True,yes,1.6050388813018799,8,
signal,0,-1,-1,0,1,11,False,yes,1.0006680488586426,8,
noise,0,-1,-1,0,1,12,True,no,1.2550299167633057,8,
noise,0,-1,-1,0,1,13,True,no,0.9773399829864502,8,
noise,0,-1,-1,0,1,14,True,no,1.1198489665985107,8,
noise,0,-1,-1,0,1,15,True,no,0.7835240364074707,8,
noise,0,-1,-1,0,1,16,True,no,0.8174710273742676,8,
noise,0,-1,-1,0,1,17,True,no,0.8080930709838867,8,
signal,0,-1,-1,0,1,18,True,yes,1.7750298976898193,8,
noise,0,-1,-1,0,1,19,True,no,1.118293046951294,8,
signal,0,-1,-1,0,1,20,True,yes,1.0490589141845703,8,
noise,0,-1,-1,0,1,21,False,no,0.8473310470581055,8,
noise,0,-1,-1,0,1,22,False,no,0.8893470764160156,8,
noise,0,-1,-1,0,1,23,True,no,1.390117883682251,8,
noise,0,-1,-1,0,1,24,False,no,0.8146169185638428,8,
noise,0,-1,-1,0,1,25,False,no,1.0489461421966553,8,
signal,0,-1,-1,0,1,26,False,yes,0.7365200519561768,8,
signal,0,-1,-1,0,1,27,True,yes,1.687694787979126,8,
noise,0,-1,-1,0,1,28,True,no,0.9478070735931396,8,
noise,0,-1,-1,0,1,29,True,no,1.369277000427246,8,
signal,0,-1,-1,0,1,30,True,yes,1.5962519645690918,8,
signal,0,-1,-1,0,1,31,True,no,1.4484679698944092,8,
noise,0,-1,-1,0,1,32,False,no,0.7999610900878906,8,
signal,0,-1,-1,0,1,33,True,yes,1.3212461471557617,8,
noise,0,-1,-1,0,1,34,False,no,0.8519999980926514,8,
noise,0,-1,-1,0,1,35,False,no,0.8020679950714111,8,
signal,0,-1,-1,0,1,36,False,yes,0.6085700988769531,8,
noise,0,-1,-1,0,1,37,True,no,1.3836510181427002,8,
signal,0,-1,-1,0,1,38,False,yes,0.7055470943450928,8,
noise,0,-1,-1,0,1,39,True,no,1.6422860622406006,8,
noise,0,-1,-1,0,1,40,False,no,0.8129830360412598,8,
signal,0,-1,-1,0,1,41,True,noresponse,None,8,
signal,0,-1,-1,0,1,42,True,yes,1.1435439586639404,8,
noise,0,-1,-1,0,1,43,False,no,1.0728020668029785,8,
signal,0,-1,-1,0,1,44,False,yes,0.6990489959716797,8,
noise,0,-1,-1,0,1,45,True,no,1.1216578483581543,8,
signal,0,-1,-1,0,1,46,True,yes,1.6900699138641357,8,
noise,0,-1,-1,0,1,47,True,noresponse,None,8,
noise,0,-1,-1,0,1,48,True,no,1.6692149639129639,8,
signal,0,-1,-1,0,1,49,True,no,0.7870309352874756,8,
signal,0,-1,-1,0,1,50,True,yes,1.186845064163208,8,
signal,0,-1,-1,0,1,51,False,yes,0.7101259231567383,8,
signal,0,-1,-1,0,1,52,False,yes,0.7080039978027344,8,
noise,0,-1,-1,0,1,53,False,no,0.8638269901275635,8,
noise,0,-1,-1,0,1,54,False,no,0.7636430263519287,8,
signal,0,-1,-1,0,1,55,False,yes,0.6993410587310791,8,
noise,0,-1,-1,0,1,56,False,no,0.79134202003479,8,
noise,0,-1,-1,0,1,57,True,no,1.6015231609344482,8,
signal,0,-1,-1,0,1,58,True,yes,1.7776150703430176,8,
signal,0,-1,-1,0,1,59,False,yes,0.747730016708374,8,
noise,0,-1,-1,0,1,60,False,no,0.740386962890625,8,
noise,0,-1,-1,0,1,61,True,no,1.0148520469665527,8,
signal,0,-1,-1,0,1,62,True,yes,1.1616148948669434,8,
signal,0,-1,-1,0,1,63,False,yes,1.054569959640503,8,
signal,0,-1,-1,0,1,64,True,yes,1.1005759239196777,8,
noise,0,-1,-1,0,1,65,False,no,0.7166240215301514,8,
noise,0,-1,-1,0,1,66,False,no,0.7809410095214844,8,
signal,0,-1,-1,0,1,67,True,yes,1.2520430088043213,8,
signal,0,-1,-1,0,1,68,False,yes,1.0314688682556152,8,
noise,0,-1,-1,0,1,69,False,no,0.6201319694519043,8,
signal,0,-1,-1,0,1,70,False,yes,0.6608541011810303,8,
signal,0,-1,-1,0,1,71,False,yes,0.6558709144592285,8,
signal,0,-1,-1,0,1,72,True,yes,1.763674020767212,8,
noise,0,-1,-1,0,1,73,True,no,1.0703330039978027,8,
noise,0,-1,-1,0,1,74,False,no,0.8659288883209229,8,
signal,0,-1,-1,0,1,75,False,yes,0.6703698635101318,8,
signal,0,-1,-1,0,1,76,True,no,1.922959804534912,8,
signal,0,-1,-1,0,1,77,True,yes,1.9397060871124268,8,
noise,0,-1,-1,0,1,78,False,no,0.6277470588684082,8,
signal,0,-1,-1,0,1,79,True,yes,1.2532169818878174,8,
noise,0,-1,-1,0,2,0,True,no,1.2164981365203857,8,
noise,0,-1,-1,0,2,1,False,no,0.7589020729064941,8,
signal,0,-1,-1,0,2,2,False,yes,0.8317289352416992,8,
noise,0,-1,-1,0,2,3,True,noresponse,None,8,
noise,0,-1,-1,0,2,4,True,no,1.817030906677246,8,
signal,0,-1,-1,0,2,5,False,yes,0.8126580715179443,8,
signal,0,-1,-1,0,2,6,True,yes,1.657567024230957,8,
signal,0,-1,-1,0,2,7,True,yes,1.7312839031219482,8,
signal,0,-1,-1,0,2,8,False,yes,0.7777841091156006,8,
signal,0,-1,-1,0,2,9,True,yes,1.1022610664367676,8,
noise,0,-1,-1,0,2,10,False,no,0.687795877456665,8,
signal,0,-1,-1,0,2,11,True,yes,0.9870657920837402,8,
noise,0,-1,-1,0,2,12,False,noresponse,None,8,
noise,0,-1,-1,0,2,13,True,no,1.2537550926208496,8,
noise,0,-1,-1,0,2,14,True,no,1.4374840259552002,8,
noise,0,-1,-1,0,2,15,False,no,1.1105132102966309,8,
noise,0,-1,-1,0,2,16,True,no,1.069544792175293,8,
noise,0,-1,-1,0,2,17,False,no,0.7656519412994385,8,
signal,0,-1,-1,0,2,18,True,yes,1.714735984802246,8,
signal,0,-1,-1,0,2,19,True,yes,1.4224939346313477,8,
noise,0,-1,-1,0,2,20,True,no,1.2590219974517822,8,
signal,0,-1,-1,0,2,21,True,yes,1.4380910396575928,8,
signal,0,-1,-1,0,2,22,True,yes,1.159956932067871,8,
noise,0,-1,-1,0,2,23,True,no,1.394723892211914,8,
noise,0,-1,-1,0,2,24,True,no,1.0570712089538574,8,
noise,0,-1,-1,0,2,25,True,no,1.269747018814087,8,
signal,0,-1,-1,0,2,26,True,yes,1.105403184890747,8,
noise,0,-1,-1,0,2,27,True,no,1.2593309879302979,8,
noise,0,-1,-1,0,2,28,True,no,2.1829941272735596,8,
signal,0,-1,-1,0,2,29,False,yes,0.8391249179840088,8,
signal,0,-1,-1,0,2,30,True,yes,1.4954009056091309,8,
signal,0,-1,-1,0,2,31,False,yes,0.879749059677124,8,
noise,0,-1,-1,0,2,32,False,no,1.0204150676727295,8,
signal,0,-1,-1,0,2,33,True,yes,0.8691201210021973,8,
signal,0,-1,-1,0,2,34,False,yes,0.8755791187286377,8,
noise,0,-1,-1,0,2,35,False,no,1.0143170356750488,8,
signal,0,-1,-1,0,2,36,False,yes,0.7666959762573242,8,
noise,0,-1,-1,0,2,37,True,no,1.1535089015960693,8,
noise,0,-1,-1,0,2,38,True,no,1.3377890586853027,8,
signal,0,-1,-1,0,2,39,False,yes,0.7447628974914551,8,
signal,0,-1,-1,0,2,40,True,yes,0.9686658382415771,8,
noise,0,-1,-1,0,2,41,True,noresponse,None,8,
noise,0,-1,-1,0,2,42,False,no,0.881317138671875,8,
signal,0,-1,-1,0,2,43,False,yes,0.6918811798095703,8,
noise,0,-1,-1,0,2,44,True,yes,1.7117090225219727,8,
signal,0,-1,-1,0,2,45,True,yes,1.4042158126831055,8,
signal,0,-1,-1,0,2,46,True,yes,1.6118929386138916,8,
signal,0,-1,-1,0,2,47,True,yes,0.966331958770752,8,
noise,0,-1,-1,0,2,48,False,no,0.9619228839874268,8,
noise,0,-1,-1,0,2,49,True,no,1.1732690334320068,8,
signal,0,-1,-1,0,2,50,True,yes,1.7248120307922363,8,
signal,0,-1,-1,0,2,51,False,yes,0.8868350982666016,8,
signal,0,-1,-1,0,2,52,True,yes,1.1345958709716797,8,
signal,0,-1,-1,0,2,53,False,yes,1.0365281105041504,8,
signal,0,-1,-1,0,2,54,False,yes,0.8642668724060059,8,
signal,0,-1,-1,0,2,55,False,yes,0.6924641132354736,8,
noise,0,-1,-1,0,2,56,True,no,1.1002769470214844,8,
noise,0,-1,-1,0,2,57,True,no,1.629971981048584,8,
signal,0,-1,-1,0,2,58,False,yes,0.8026540279388428,8,
noise,0,-1,-1,0,2,59,True,no,1.5618619918823242,8,
noise,0,-1,-1,0,2,60,True,no,1.8620128631591797,8,
signal,0,-1,-1,0,2,61,False,yes,0.7544279098510742,8,
noise,0,-1,-1,0,2,62,True,no,1.5452990531921387,8,
signal,0,-1,-1,0,2,63,False,yes,0.8671369552612305,8,
noise,0,-1,-1,0,2,64,False,no,1.6789000034332275,8,
signal,0,-1,-1,0,2,65,True,yes,1.0777289867401123,8,
signal,0,-1,-1,0,2,66,True,yes,1.592885971069336,8,
noise,0,-1,-1,0,2,67,True,no,1.1783409118652344,8,
signal,0,-1,-1,0,2,68,True,yes,1.0650839805603027,8,
noise,0,-1,-1,0,2,69,True,no,1.1329779624938965,8,
noise,0,-1,-1,0,2,70,True,no,0.9718060493469238,8,
signal,0,-1,-1,0,2,71,True,yes,1.3767521381378174,8,
signal,0,-1,-1,0,2,72,False,yes,0.7021551132202148,8,
signal,0,-1,-1,0,2,73,False,yes,0.7372870445251465,8,
noise,0,-1,-1,0,2,74,True,no,1.1035380363464355,8,
noise,0,-1,-1,0,2,75,False,no,1.0518081188201904,8,
signal,0,-1,-1,0,2,76,False,yes,0.7625610828399658,8,
noise,0,-1,-1,0,2,77,False,yes,1.4115300178527832,8,
noise,0,-1,-1,0,2,78,False,no,1.5497651100158691,8,
noise,0,-1,-1,0,2,79,False,no,0.7583439350128174,8,
signal,0,-1,-1,0,3,0,False,yes,1.3244400024414062,8,
noise,0,-1,-1,0,3,1,True,no,1.113253116607666,8,
noise,0,-1,-1,0,3,2,False,no,1.0116708278656006,8,
noise,0,-1,-1,0,3,3,False,no,1.039949893951416,8,
noise,0,-1,-1,0,3,4,True,no,1.7451038360595703,8,
signal,0,-1,-1,0,3,5,False,yes,0.599632978439331,8,
noise,0,-1,-1,0,3,6,True,no,0.9806258678436279,8,
noise,0,-1,-1,0,3,7,True,no,1.949627161026001,8,
signal,0,-1,-1,0,3,8,False,yes,0.6602540016174316,8,
signal,0,-1,-1,0,3,9,False,yes,0.9436841011047363,8,
signal,0,-1,-1,0,3,10,True,yes,1.5066170692443848,8,
noise,0,-1,-1,0,3,11,True,no,1.2398591041564941,8,
signal,0,-1,-1,0,3,12,False,yes,0.9242479801177979,8,
signal,0,-1,-1,0,3,13,False,yes,0.7096939086914062,8,
noise,0,-1,-1,0,3,14,True,no,2.0518910884857178,8,
noise,0,-1,-1,0,3,15,False,no,0.8623960018157959,8,
signal,0,-1,-1,0,3,16,True,yes,1.720538854598999,8,
signal,0,-1,-1,0,3,17,True,yes,1.0453341007232666,8,
signal,0,-1,-1,0,3,18,False,yes,0.825822114944458,8,
signal,0,-1,-1,0,3,19,True,yes,1.0047829151153564,8,
signal,0,-1,-1,0,3,20,True,yes,1.6119441986083984,8,
signal,0,-1,-1,0,3,21,True,yes,0.9050629138946533,8,
noise,0,-1,-1,0,3,22,True,no,1.1180801391601562,8,
signal,0,-1,-1,0,3,23,True,yes,1.259619951248169,8,
signal,0,-1,-1,0,3,24,True,yes,0.9562258720397949,8,
noise,0,-1,-1,0,3,25,False,no,0.8254878520965576,8,
signal,0,-1,-1,0,3,26,True,yes,0.9836130142211914,8,
noise,0,-1,-1,0,3,27,True,no,1.1868560314178467,8,
noise,0,-1,-1,0,3,28,False,no,0.71809983253479,8,
signal,0,-1,-1,0,3,29,False,yes,0.8895280361175537,8,
noise,0,-1,-1,0,3,30,False,no,1.2657408714294434,8,
noise,0,-1,-1,0,3,31,False,no,1.2823851108551025,8,
signal,0,-1,-1,0,3,32,False,yes,0.7103168964385986,8,
noise,0,-1,-1,0,3,33,False,no,0.8632991313934326,8,
noise,0,-1,-1,0,3,34,True,no,1.1191461086273193,8,
signal,0,-1,-1,0,3,35,False,yes,0.663809061050415,8,
noise,0,-1,-1,0,3,36,False,no,0.7817080020904541,8,
noise,0,-1,-1,0,3,37,False,no,0.6907250881195068,8,
noise,0,-1,-1,0,3,38,True,no,1.110908031463623,8,
signal,0,-1,-1,0,3,39,True,no,1.664750099182129,8,
signal,0,-1,-1,0,3,40,True,yes,1.3443148136138916,8,
noise,0,-1,-1,0,3,41,True,no,0.9978439807891846,8,
noise,0,-1,-1,0,3,42,True,no,0.851405143737793,8,
signal,0,-1,-1,0,3,43,False,yes,1.0284509658813477,8,
signal,0,-1,-1,0,3,44,True,yes,1.2155489921569824,8,
signal,0,-1,-1,0,3,45,False,yes,1.0279109477996826,8,
noise,0,-1,-1,0,3,46,False,no,0.8351740837097168,8,
noise,0,-1,-1,0,3,47,True,no,2.169240951538086,8,
signal,0,-1,-1,0,3,48,False,yes,1.0517361164093018,8,
noise,0,-1,-1,0,3,49,True,no,1.7709600925445557,8,
noise,0,-1,-1,0,3,50,False,no,0.8201870918273926,8,
noise,0,-1,-1,0,3,51,True,no,1.2642841339111328,8,
signal,0,-1,-1,0,3,52,False,yes,0.7266230583190918,8,
signal,0,-1,-1,0,3,53,True,yes,1.2333340644836426,8,
noise,0,-1,-1,0,3,54,True,no,1.091284990310669,8,
signal,0,-1,-1,0,3,55,False,yes,0.7581329345703125,8,
signal,0,-1,-1,0,3,56,False,yes,0.9823851585388184,8,
noise,0,-1,-1,0,3,57,False,no,0.8830881118774414,8,
signal,0,-1,-1,0,3,58,False,yes,0.6810028553009033,8,
signal,0,-1,-1,0,3,59,False,yes,0.7357079982757568,8,
signal,0,-1,-1,0,3,60,True,yes,1.332129955291748,8,
noise,0,-1,-1,0,3,61,True,no,0.939885139465332,8,
noise,0,-1,-1,0,3,62,True,no,1.191403865814209,8,
signal,0,-1,-1,0,3,63,True,yes,1.1269829273223877,8,
noise,0,-1,-1,0,3,64,False,no,1.0173239707946777,8,
signal,0,-1,-1,0,3,65,True,no,1.2497351169586182,8,
noise,0,-1,-1,0,3,66,False,no,0.8187479972839355,8,
noise,0,-1,-1,0,3,67,False,no,1.1552510261535645,8,
noise,0,-1,-1,0,3,68,False,no,0.9413740634918213,8,
noise,0,-1,-1,0,3,69,False,no,1.073699951171875,8,
signal,0,-1,-1,0,3,70,True,yes,1.6812200546264648,8,
signal,0,-1,-1,0,3,71,False,yes,0.6348509788513184,8,
signal,0,-1,-1,0,3,72,True,yes,0.9021759033203125,8,
noise,0,-1,-1,0,3,73,True,no,0.9946908950805664,8,
noise,0,-1,-1,0,3,74,False,no,0.8262338638305664,8,
signal,0,-1,-1,0,3,75,True,yes,0.9834611415863037,8,
noise,0,-1,-1,0,3,76,False,no,0.9030439853668213,8,
noise,0,-1,-1,0,3,77,False,no,0.7100419998168945,8,
signal,0,-1,-1,0,3,78,False,yes,0.6890859603881836,8,
signal,0,-1,-1,0,3,79,False,yes,0.9937059879302979,8,
signal,0,-1,-1,0,4,0,False,yes,0.9713830947875977,8,
noise,0,-1,-1,0,4,1,True,no,1.2443950176239014,8,
signal,0,-1,-1,0,4,2,False,yes,0.8754279613494873,8,
signal,0,-1,-1,0,4,3,True,yes,1.2035090923309326,8,
noise,0,-1,-1,0,4,4,True,no,1.3095760345458984,8,
signal,0,-1,-1,0,4,5,True,yes,1.621109962463379,8,
signal,0,-1,-1,0,4,6,False,yes,1.1113028526306152,8,
noise,0,-1,-1,0,4,7,True,no,1.385756015777588,8,
signal,0,-1,-1,0,4,8,False,yes,0.9391889572143555,8,
signal,0,-1,-1,0,4,9,True,yes,1.3034391403198242,8,
signal,0,-1,-1,0,4,10,True,noresponse,None,8,
signal,0,-1,-1,0,4,11,False,yes,0.8359241485595703,8,
noise,0,-1,-1,0,4,12,True,no,0.9504539966583252,8,
noise,0,-1,-1,0,4,13,True,no,1.8073341846466064,8,
noise,0,-1,-1,0,4,14,False,no,1.1784279346466064,8,
signal,0,-1,-1,0,4,15,False,yes,0.8874630928039551,8,
signal,0,-1,-1,0,4,16,False,yes,0.7702810764312744,8,
signal,0,-1,-1,0,4,17,False,yes,1.2275121212005615,8,
noise,0,-1,-1,0,4,18,False,no,0.808927059173584,8,
signal,0,-1,-1,0,4,19,False,yes,0.8297519683837891,8,
noise,0,-1,-1,0,4,20,True,no,0.9754700660705566,8,
noise,0,-1,-1,0,4,21,False,no,1.1630818843841553,8,
signal,0,-1,-1,0,4,22,True,yes,1.6670801639556885,8,
signal,0,-1,-1,0,4,23,False,yes,0.8007290363311768,8,
noise,0,-1,-1,0,4,24,False,no,0.8752341270446777,8,
signal,0,-1,-1,0,4,25,True,yes,1.0289790630340576,8,
signal,0,-1,-1,0,4,26,True,yes,1.3115570545196533,8,
signal,0,-1,-1,0,4,27,True,yes,1.184709072113037,8,
signal,0,-1,-1,0,4,28,False,yes,0.8483700752258301,8,
signal,0,-1,-1,0,4,29,True,no,1.0987701416015625,8,
noise,0,-1,-1,0,4,30,False,no,0.8566169738769531,8,
signal,0,-1,-1,0,4,31,False,yes,0.6701090335845947,8,
noise,0,-1,-1,0,4,32,False,no,1.1863861083984375,8,
signal,0,-1,-1,0,4,33,True,noresponse,None,8,
signal,0,-1,-1,0,4,34,True,yes,1.732280969619751,8,
noise,0,-1,-1,0,4,35,False,no,1.1305570602416992,8,
signal,0,-1,-1,0,4,36,False,yes,0.9452178478240967,8,
noise,0,-1,-1,0,4,37,True,no,1.9535510540008545,8,
signal,0,-1,-1,0,4,38,True,yes,1.8793599605560303,8,
signal,0,-1,-1,0,4,39,True,yes,1.0572409629821777,8,
noise,0,-1,-1,0,4,40,False,no,0.7783269882202148,8,
noise,0,-1,-1,0,4,41,True,no,1.0437572002410889,8,
signal,0,-1,-1,0,4,42,False,yes,0.8367462158203125,8,
noise,0,-1,-1,0,4,43,True,no,1.014981985092163,8,
noise,0,-1,-1,0,4,44,True,no,1.070127010345459,8,
noise,0,-1,-1,0,4,45,False,no,1.0388779640197754,8,
noise,0,-1,-1,0,4,46,False,no,1.1192600727081299,8,
noise,0,-1,-1,0,4,47,True,no,1.1733720302581787,8,
signal,0,-1,-1,0,4,48,False,yes,0.6894922256469727,8,
noise,0,-1,-1,0,4,49,True,no,1.8512330055236816,8,
noise,0,-1,-1,0,4,50,False,no,0.8893318176269531,8,
signal,0,-1,-1,0,4,51,False,yes,1.3273670673370361,8,
noise,0,-1,-1,0,4,52,False,no,0.8418009281158447,8,
noise,0,-1,-1,0,4,53,True,no,1.3200209140777588,8,
noise,0,-1,-1,0,4,54,False,no,0.8492431640625,8,
signal,0,-1,-1,0,4,55,False,yes,0.6983170509338379,8,
signal,0,-1,-1,0,4,56,False,yes,0.9321508407592773,8,
noise,0,-1,-1,0,4,57,False,no,0.8462250232696533,8,
signal,0,-1,-1,0,4,58,False,yes,0.752255916595459,8,
signal,0,-1,-1,0,4,59,True,yes,1.9213268756866455,8,
noise,0,-1,-1,0,4,60,True,no,1.0457148551940918,8,
noise,0,-1,-1,0,4,61,True,no,0.8981540203094482,8,
noise,0,-1,-1,0,4,62,False,no,1.0048840045928955,8,
signal,0,-1,-1,0,4,63,False,yes,0.947969913482666,8,
noise,0,-1,-1,0,4,64,True,no,1.9232978820800781,8,
noise,0,-1,-1,0,4,65,False,no,0.919018030166626,8,
noise,0,-1,-1,0,4,66,True,no,1.1309599876403809,8,
noise,0,-1,-1,0,4,67,False,no,0.6803600788116455,8,
noise,0,-1,-1,0,4,68,False,no,0.8137719631195068,8,
signal,0,-1,-1,0,4,69,False,yes,0.963021993637085,8,
signal,0,-1,-1,0,4,70,True,yes,1.0302741527557373,8,
noise,0,-1,-1,0,4,71,False,no,0.8056950569152832,8,
noise,0,-1,-1,0,4,72,True,no,1.8198301792144775,8,
noise,0,-1,-1,0,4,73,False,no,0.7220349311828613,8,
signal,0,-1,-1,0,4,74,False,yes,1.0725500583648682,8,
noise,0,-1,-1,0,4,75,True,no,1.5096838474273682,8,
noise,0,-1,-1,0,4,76,True,no,1.4957640171051025,8,
signal,0,-1,-1,0,4,77,False,yes,0.8779330253601074,8,
signal,0,-1,-1,0,4,78,True,yes,1.2697958946228027,8,
signal,0,-1,-1,0,4,79,True,yes,1.8004400730133057,8,
noise,0,-1,-1,0,5,0,True,no,1.1199450492858887,8,
signal,0,-1,-1,0,5,1,True,yes,1.045233964920044,8,
noise,0,-1,-1,0,5,2,True,no,0.9502260684967041,8,
signal,0,-1,-1,0,5,3,True,yes,1.172903060913086,8,
noise,0,-1,-1,0,5,4,True,no,1.114711046218872,8,
signal,0,-1,-1,0,5,5,False,yes,0.6689491271972656,8,
signal,0,-1,-1,0,5,6,False,yes,0.5756349563598633,8,
signal,0,-1,-1,0,5,7,False,no,0.701153039932251,8,
noise,0,-1,-1,0,5,8,True,no,1.3213648796081543,8,
noise,0,-1,-1,0,5,9,False,no,0.9085988998413086,8,
signal,0,-1,-1,0,5,10,False,yes,0.7874360084533691,8,
noise,0,-1,-1,0,5,11,False,no,1.0521841049194336,8,
noise,0,-1,-1,0,5,12,True,no,1.3534269332885742,8,
noise,0,-1,-1,0,5,13,True,no,2.0656280517578125,8,
signal,0,-1,-1,0,5,14,False,yes,0.8563568592071533,8,
noise,0,-1,-1,0,5,15,False,no,1.2335319519042969,8,
noise,0,-1,-1,0,5,16,False,no,1.0136661529541016,8,
noise,0,-1,-1,0,5,17,True,no,1.5014820098876953,8,
noise,0,-1,-1,0,5,18,False,no,0.8397519588470459,8,
noise,0,-1,-1,0,5,19,False,no,0.7593278884887695,8,
signal,0,-1,-1,0,5,20,False,yes,0.8225739002227783,8,
signal,0,-1,-1,0,5,21,True,yes,1.0504109859466553,8,
noise,0,-1,-1,0,5,22,False,no,1.236396074295044,8,
signal,0,-1,-1,0,5,23,False,yes,0.8529698848724365,8,
noise,0,-1,-1,0,5,24,False,no,1.054213047027588,8,
signal,0,-1,-1,0,5,25,False,yes,0.9096739292144775,8,
noise,0,-1,-1,0,5,26,True,noresponse,None,8,
noise,0,-1,-1,0,5,27,True,noresponse,None,8,
noise,0,-1,-1,0,5,28,False,no,1.351058006286621,8,
signal,0,-1,-1,0,5,29,False,yes,0.7393779754638672,8,
signal,0,-1,-1,0,5,30,True,yes,1.2771430015563965,8,
signal,0,-1,-1,0,5,31,True,yes,0.9721930027008057,8,
signal,0,-1,-1,0,5,32,False,yes,1.071794033050537,8,
signal,0,-1,-1,0,5,33,True,yes,1.011760950088501,8,
noise,0,-1,-1,0,5,34,True,no,1.046367883682251,8,
signal,0,-1,-1,0,5,35,False,yes,0.9804079532623291,8,
signal,0,-1,-1,0,5,36,False,yes,1.569451093673706,8,
signal,0,-1,-1,0,5,37,True,yes,1.1503219604492188,8,
noise,0,-1,-1,0,5,38,False,no,1.1279888153076172,8,
noise,0,-1,-1,0,5,39,True,no,0.8483188152313232,8,
signal,0,-1,-1,0,5,40,True,yes,1.7778069972991943,8,
noise,0,-1,-1,0,5,41,True,no,1.0901141166687012,8,
noise,0,-1,-1,0,5,42,False,no,0.8323829174041748,8,
noise,0,-1,-1,0,5,43,False,no,0.9174652099609375,8,
signal,0,-1,-1,0,5,44,True,yes,1.361591100692749,8,
noise,0,-1,-1,0,5,45,False,no,0.8997700214385986,8,
noise,0,-1,-1,0,5,46,True,no,1.516319990158081,8,
noise,0,-1,-1,0,5,47,True,no,1.3538110256195068,8,
signal,0,-1,-1,0,5,48,False,yes,1.2209999561309814,8,
noise,0,-1,-1,0,5,49,False,no,0.954179048538208,8,
signal,0,-1,-1,0,5,50,False,yes,1.0631251335144043,8,
signal,0,-1,-1,0,5,51,False,yes,1.0869090557098389,8,
noise,0,-1,-1,0,5,52,False,no,1.3269507884979248,8,
noise,0,-1,-1,0,5,53,True,no,1.9989879131317139,8,
signal,0,-1,-1,0,5,54,False,yes,0.8853890895843506,8,
noise,0,-1,-1,0,5,55,True,no,1.6518750190734863,8,
noise,0,-1,-1,0,5,56,True,no,0.988224983215332,8,
signal,0,-1,-1,0,5,57,True,yes,1.2878220081329346,8,
signal,0,-1,-1,0,5,58,False,yes,1.1877870559692383,8,
noise,0,-1,-1,0,5,59,True,no,1.5088810920715332,8,
noise,0,-1,-1,0,5,60,False,no,0.930426836013794,8,
signal,0,-1,-1,0,5,61,False,yes,1.3798720836639404,8,
signal,0,-1,-1,0,5,62,False,yes,0.9606878757476807,8,
signal,0,-1,-1,0,5,63,True,yes,1.4871680736541748,8,
signal,0,-1,-1,0,5,64,False,yes,0.8839960098266602,8,
signal,0,-1,-1,0,5,65,True,yes,1.7043719291687012,8,
signal,0,-1,-1,0,5,66,True,yes,1.2316720485687256,8,
noise,0,-1,-1,0,5,67,True,no,1.3364839553833008,8,
noise,0,-1,-1,0,5,68,False,no,0.98447585105896,8,
signal,0,-1,-1,0,5,69,False,yes,1.0959930419921875,8,
noise,0,-1,-1,0,5,70,True,no,1.7713420391082764,8,
noise,0,-1,-1,0,5,71,True,no,1.5090980529785156,8,
signal,0,-1,-1,0,5,72,False,yes,0.7889561653137207,8,
signal,0,-1,-1,0,5,73,True,yes,1.1221280097961426,8,
signal,0,-1,-1,0,5,74,False,yes,0.8517870903015137,8,
signal,0,-1,-1,0,5,75,True,yes,1.2870368957519531,8,
noise,0,-1,-1,0,5,76,False,no,1.0934181213378906,8,
noise,0,-1,-1,0,5,77,False,no,1.2303249835968018,8,
signal,0,-1,-1,0,5,78,False,yes,0.7945468425750732,8,
signal,0,-1,-1,0,5,79,False,yes,0.7463550567626953,8,
noise,0,-1,-1,0,6,0,False,no,0.8716487884521484,8,
signal,0,-1,-1,0,6,1,True,yes,0.9889450073242188,8,
signal,0,-1,-1,0,6,2,True,yes,0.9410929679870605,8,
signal,0,-1,-1,0,6,3,True,yes,0.8928787708282471,8,
noise,0,-1,-1,0,6,4,False,no,0.9979040622711182,8,
signal,0,-1,-1,0,6,5,True,yes,0.9342811107635498,8,
signal,0,-1,-1,0,6,6,False,yes,0.7185380458831787,8,
signal,0,-1,-1,0,6,7,False,yes,1.031574010848999,8,
noise,0,-1,-1,0,6,8,False,no,0.9951050281524658,8,
noise,0,-1,-1,0,6,9,True,no,1.8982620239257812,8,
signal,0,-1,-1,0,6,10,False,yes,1.0411269664764404,8,
signal,0,-1,-1,0,6,11,False,yes,0.7572021484375,8,
noise,0,-1,-1,0,6,12,False,no,1.0990869998931885,8,
noise,0,-1,-1,0,6,13,True,no,0.9243888854980469,8,
signal,0,-1,-1,0,6,14,True,yes,1.7790908813476562,8,
signal,0,-1,-1,0,6,15,True,yes,0.9085719585418701,8,
signal,0,-1,-1,0,6,16,False,yes,0.7640209197998047,8,
signal,0,-1,-1,0,6,17,False,yes,1.4369609355926514,8,
signal,0,-1,-1,0,6,18,False,yes,0.8043949604034424,8,
noise,0,-1,-1,0,6,19,False,no,0.7218170166015625,8,
signal,0,-1,-1,0,6,20,False,yes,0.7507429122924805,8,
noise,0,-1,-1,0,6,21,True,no,1.3405570983886719,8,
signal,0,-1,-1,0,6,22,True,yes,1.8390190601348877,8,
noise,0,-1,-1,0,6,23,True,no,1.3472769260406494,8,
noise,0,-1,-1,0,6,24,True,no,1.3933439254760742,8,
noise,0,-1,-1,0,6,25,True,no,1.0328781604766846,8,
signal,0,-1,-1,0,6,26,True,yes,1.0886659622192383,8,
noise,0,-1,-1,0,6,27,True,no,1.2221579551696777,8,
noise,0,-1,-1,0,6,28,False,no,0.7710080146789551,8,
signal,0,-1,-1,0,6,29,False,yes,1.043558120727539,8,
noise,0,-1,-1,0,6,30,True,no,1.0095710754394531,8,
signal,0,-1,-1,0,6,31,True,yes,0.9950728416442871,8,
signal,0,-1,-1,0,6,32,True,yes,1.2114758491516113,8,
signal,0,-1,-1,0,6,33,True,yes,1.374298095703125,8,
noise,0,-1,-1,0,6,34,True,no,1.058542013168335,8,
noise,0,-1,-1,0,6,35,True,no,1.2435879707336426,8,
signal,0,-1,-1,0,6,36,True,yes,0.9079289436340332,8,
noise,0,-1,-1,0,6,37,True,no,1.0812559127807617,8,
noise,0,-1,-1,0,6,38,False,no,1.2044920921325684,8,
signal,0,-1,-1,0,6,39,True,yes,1.0124890804290771,8,
noise,0,-1,-1,0,6,40,False,no,2.085641860961914,8,
noise,0,-1,-1,0,6,41,True,no,1.4105498790740967,8,
signal,0,-1,-1,0,6,42,True,yes,1.0233750343322754,8,
noise,0,-1,-1,0,6,43,True,no,0.9664850234985352,8,
signal,0,-1,-1,0,6,44,False,no,0.8634328842163086,8,
noise,0,-1,-1,0,6,45,False,no,1.2257061004638672,8,
signal,0,-1,-1,0,6,46,False,yes,1.0851411819458008,8,
noise,0,-1,-1,0,6,47,True,no,1.8054471015930176,8,
noise,0,-1,-1,0,6,48,False,no,1.0182080268859863,8,
signal,0,-1,-1,0,6,49,True,yes,0.9641470909118652,8,
signal,0,-1,-1,0,6,50,False,yes,0.7693500518798828,8,
noise,0,-1,-1,0,6,51,False,no,1.1009328365325928,8,
signal,0,-1,-1,0,6,52,False,yes,0.9901168346405029,8,
noise,0,-1,-1,0,6,53,True,no,1.5048191547393799,8,
noise,0,-1,-1,0,6,54,False,no,0.9282071590423584,8,
signal,0,-1,-1,0,6,55,False,yes,1.2014670372009277,8,
signal,0,-1,-1,0,6,56,True,yes,1.1634600162506104,8,
noise,0,-1,-1,0,6,57,True,no,1.9719178676605225,8,
noise,0,-1,-1,0,6,58,True,no,1.3251938819885254,8,
signal,0,-1,-1,0,6,59,True,yes,0.895514965057373,8,
signal,0,-1,-1,0,6,60,True,yes,0.9802331924438477,8,
noise,0,-1,-1,0,6,61,False,no,0.7965810298919678,8,
signal,0,-1,-1,0,6,62,True,yes,1.160879135131836,8,
signal,0,-1,-1,0,6,63,False,yes,0.6707730293273926,8,
noise,0,-1,-1,0,6,64,True,no,2.150243043899536,8,
signal,0,-1,-1,0,6,65,False,yes,0.8493368625640869,8,
noise,0,-1,-1,0,6,66,True,no,1.4806098937988281,8,
signal,0,-1,-1,0,6,67,False,yes,0.8640780448913574,8,
noise,0,-1,-1,0,6,68,False,no,0.8819019794464111,8,
noise,0,-1,-1,0,6,69,True,no,1.3333971500396729,8,
noise,0,-1,-1,0,6,70,True,no,2.1427650451660156,8,
noise,0,-1,-1,0,6,71,True,no,1.0273189544677734,8,
noise,0,-1,-1,0,6,72,True,no,1.4108870029449463,8,
signal,0,-1,-1,0,6,73,False,yes,0.9610300064086914,8,
signal,0,-1,-1,0,6,74,True,no,1.5184738636016846,8,
noise,0,-1,-1,0,6,75,False,no,0.8826029300689697,8,
signal,0,-1,-1,0,6,76,False,yes,1.6744999885559082,8,
signal,0,-1,-1,0,6,77,False,yes,0.8958849906921387,8,
noise,0,-1,-1,0,6,78,True,no,1.0412049293518066,8,
noise,0,-1,-1,0,6,79,False,no,0.942857027053833,8,
noise,0,-1,-1,0,7,0,False,no,0.8560090065002441,8,
signal,0,-1,-1,0,7,1,True,yes,1.1949610710144043,8,
noise,0,-1,-1,0,7,2,True,no,0.9645369052886963,8,
signal,0,-1,-1,0,7,3,False,yes,0.7384109497070312,8,
noise,0,-1,-1,0,7,4,False,no,1.0172779560089111,8,
signal,0,-1,-1,0,7,5,True,yes,1.300724983215332,8,
signal,0,-1,-1,0,7,6,False,yes,0.9193458557128906,8,
signal,0,-1,-1,0,7,7,False,yes,0.6771249771118164,8,
signal,0,-1,-1,0,7,8,True,yes,1.1528959274291992,8,
signal,0,-1,-1,0,7,9,True,yes,0.972722053527832,8,
noise,0,-1,-1,0,7,10,True,no,1.1279981136322021,8,
signal,0,-1,-1,0,7,11,False,yes,0.7073559761047363,8,
signal,0,-1,-1,0,7,12,False,yes,0.7875010967254639,8,
signal,0,-1,-1,0,7,13,True,yes,0.931675910949707,8,
signal,0,-1,-1,0,7,14,True,yes,1.5919620990753174,8,
signal,0,-1,-1,0,7,15,False,yes,1.2177181243896484,8,
noise,0,-1,-1,0,7,16,False,no,2.054184913635254,8,
noise,0,-1,-1,0,7,17,True,no,1.593346118927002,8,
noise,0,-1,-1,0,7,18,True,no,1.7821168899536133,8,
signal,0,-1,-1,0,7,19,False,yes,1.2829298973083496,8,
noise,0,-1,-1,0,7,20,False,no,1.0797450542449951,8,
noise,0,-1,-1,0,7,21,True,no,1.6058640480041504,8,
signal,0,-1,-1,0,7,22,True,yes,1.0174918174743652,8,
noise,0,-1,-1,0,7,23,False,no,0.77793288230896,8,
noise,0,-1,-1,0,7,24,True,no,1.2182881832122803,8,
signal,0,-1,-1,0,7,25,True,yes,1.1488909721374512,8,
noise,0,-1,-1,0,7,26,True,no,1.1264758110046387,8,
signal,0,-1,-1,0,7,27,False,yes,0.8077919483184814,8,
noise,0,-1,-1,0,7,28,False,no,1.0374948978424072,8,
noise,0,-1,-1,0,7,29,True,no,1.1295628547668457,8,
noise,0,-1,-1,0,7,30,True,no,1.221468210220337,8,
noise,0,-1,-1,0,7,31,False,no,0.8041648864746094,8,
noise,0,-1,-1,0,7,32,True,no,1.2408251762390137,8,
signal,0,-1,-1,0,7,33,True,yes,0.945875883102417,8,
signal,0,-1,-1,0,7,34,True,yes,1.3894529342651367,8,
noise,0,-1,-1,0,7,35,True,no,1.2843971252441406,8,
signal,0,-1,-1,0,7,36,True,yes,0.9364900588989258,8,
noise,0,-1,-1,0,7,37,False,no,0.6613738536834717,8,
noise,0,-1,-1,0,7,38,True,no,1.1000549793243408,8,
signal,0,-1,-1,0,7,39,True,yes,1.2296578884124756,8,
noise,0,-1,-1,0,7,40,False,no,1.058210849761963,8,
noise,0,-1,-1,0,7,41,True,no,1.456238031387329,8,
signal,0,-1,-1,0,7,42,False,yes,0.76863694190979,8,
signal,0,-1,-1,0,7,43,True,yes,1.272834062576294,8,
signal,0,-1,-1,0,7,44,False,yes,0.749039888381958,8,
noise,0,-1,-1,0,7,45,True,no,1.0709099769592285,8,
noise,0,-1,-1,0,7,46,True,no,0.997654914855957,8,
signal,0,-1,-1,0,7,47,False,yes,0.7446420192718506,8,
signal,0,-1,-1,0,7,48,True,yes,1.0702369213104248,8,
noise,0,-1,-1,0,7,49,False,no,0.9231128692626953,8,
signal,0,-1,-1,0,7,50,False,yes,0.8880219459533691,8,
noise,0,-1,-1,0,7,51,False,no,0.769132137298584,8,
signal,0,-1,-1,0,7,52,True,noresponse,None,8,
noise,0,-1,-1,0,7,53,False,no,1.1384470462799072,8,
signal,0,-1,-1,0,7,54,True,yes,1.5788679122924805,8,
noise,0,-1,-1,0,7,55,False,no,0.7975740432739258,8,
noise,0,-1,-1,0,7,56,True,no,0.9620819091796875,8,
signal,0,-1,-1,0,7,57,True,yes,1.8708710670471191,8,
noise,0,-1,-1,0,7,58,True,no,1.4255261421203613,8,
noise,0,-1,-1,0,7,59,False,no,0.8973350524902344,8,
signal,0,-1,-1,0,7,60,True,yes,1.001000165939331,8,
signal,0,-1,-1,0,7,61,False,yes,1.078557014465332,8,
signal,0,-1,-1,0,7,62,False,yes,1.4774680137634277,8,
signal,0,-1,-1,0,7,63,True,yes,1.1126430034637451,8,
noise,0,-1,-1,0,7,64,False,no,1.1352510452270508,8,
noise,0,-1,-1,0,7,65,True,no,1.5318851470947266,8,
signal,0,-1,-1,0,7,66,False,yes,0.9843878746032715,8,
signal,0,-1,-1,0,7,67,True,yes,1.0035479068756104,8,
noise,0,-1,-1,0,7,68,False,no,1.0044910907745361,8,
noise,0,-1,-1,0,7,69,True,no,1.9688880443572998,8,
noise,0,-1,-1,0,7,70,True,no,1.1031200885772705,8,
signal,0,-1,-1,0,7,71,True,no,0.8160429000854492,8,
noise,0,-1,-1,0,7,72,False,no,0.8146588802337646,8,
signal,0,-1,-1,0,7,73,True,yes,1.3705379962921143,8,
signal,0,-1,-1,0,7,74,False,yes,0.8292419910430908,8,
noise,0,-1,-1,0,7,75,False,no,1.1232109069824219,8,
noise,0,-1,-1,0,7,76,True,no,1.2378020286560059,8,
noise,0,-1,-1,0,7,77,False,no,0.9380269050598145,8,
signal,0,-1,-1,0,7,78,True,yes,1.1645870208740234,8,
signal,0,-1,-1,0,7,79,True,yes,1.3070800304412842,8,
noise,0,0,0,7,8,0,True,no,0.918248176574707,8,
signal,0,1,1,14,8,1,False,yes,0.7636768817901611,8,
noise,0,2,2,37,8,2,True,no,1.3870279788970947,8,
noise,0,3,3,49,8,3,False,no,0.8140439987182617,8,
noise,0,4,4,21,8,4,False,no,0.8813140392303467,8,
signal,0,5,5,52,8,5,True,yes,1.4596569538116455,8,
noise,0,6,6,51,8,6,False,no,0.7744491100311279,8,
noise,0,7,7,35,8,7,True,no,1.8149759769439697,8,
signal,0,8,8,42,8,8,True,no,1.9299240112304688,8,
signal,0,9,9,16,8,9,True,yes,1.9701101779937744,8,
noise,0,10,10,67,8,10,True,no,0.9815208911895752,8,
signal,0,11,11,50,8,11,True,yes,1.2083251476287842,8,
noise,0,12,12,19,8,12,True,no,1.1166760921478271,8,
signal,0,13,13,18,8,13,True,noresponse,None,8,
signal,0,14,14,12,8,14,True,yes,0.9906909465789795,8,
signal,0,15,15,76,8,15,False,yes,0.9145030975341797,8,
signal,0,16,16,74,8,16,False,yes,0.8254280090332031,8,
signal,0,17,17,6,8,17,False,yes,0.9136810302734375,8,
signal,0,18,18,68,8,18,True,yes,1.2443480491638184,8,
noise,0,19,19,39,8,19,False,no,0.8142991065979004,8,
signal,0,20,20,70,8,20,False,yes,0.9606339931488037,8,
signal,0,21,21,72,8,21,True,yes,1.1675219535827637,8,
noise,0,22,22,47,8,22,False,no,0.9676358699798584,8,
noise,0,23,23,23,8,23,True,no,1.088608980178833,8,
signal,0,24,24,44,8,24,False,yes,0.9323141574859619,8,
signal,0,25,25,20,8,25,False,yes,1.2516140937805176,8,
signal,0,26,26,46,8,26,True,yes,1.2514500617980957,8,
noise,0,27,27,77,8,27,False,no,1.4408848285675049,8,
noise,0,28,28,13,8,28,False,no,1.6349339485168457,8,
noise,0,29,29,57,8,29,True,no,1.3814561367034912,8,
noise,0,30,30,25,8,30,False,no,0.8671560287475586,8,
noise,0,31,31,15,8,31,False,no,1.0008091926574707,8,
noise,0,32,32,79,8,32,True,no,0.9088528156280518,8,
noise,0,33,33,9,8,33,True,no,0.9904179573059082,8,
noise,0,34,34,75,8,34,False,no,1.0841829776763916,8,
signal,0,35,35,62,8,35,True,yes,1.121671199798584,8,
signal,0,36,36,54,8,36,True,yes,0.9769887924194336,8,
signal,0,37,37,4,8,37,True,yes,1.3607890605926514,8,
signal,0,38,38,48,8,38,False,yes,0.8901331424713135,8,
signal,0,39,39,36,8,39,False,yes,0.8734800815582275,8,
signal,0,40,40,60,8,40,True,yes,1.3215980529785156,8,
signal,0,41,41,66,8,41,False,yes,1.2164440155029297,8,
noise,0,42,42,27,8,42,True,no,1.3130919933319092,8,
noise,0,43,43,65,8,43,False,no,1.1578259468078613,8,
signal,0,44,44,64,8,44,True,yes,1.0265929698944092,8,
noise,0,45,45,55,8,45,True,no,1.2700178623199463,8,
signal,0,46,46,34,8,46,False,yes,1.300299882888794,8,
noise,0,47,47,33,8,47,False,no,0.8180341720581055,8,
signal,0,48,48,26,8,48,False,yes,1.0021660327911377,8,
noise,0,49,49,59,8,49,False,no,0.8859291076660156,8,
signal,0,50,50,10,8,50,False,no,0.9051971435546875,8,
signal,0,51,51,38,8,51,False,yes,0.9057049751281738,8,
noise,0,52,52,63,8,52,False,no,1.3063888549804688,8,
noise,0,53,53,53,8,53,False,no,1.0394480228424072,8,
noise,0,54,54,73,8,54,False,no,1.120398998260498,8,
signal,0,55,55,32,8,55,False,yes,0.8050808906555176,8,
signal,0,56,56,0,8,56,False,yes,1.1645708084106445,8,
noise,0,57,57,45,8,57,True,no,0.9632930755615234,8,
signal,0,58,58,2,8,58,False,yes,0.6940679550170898,8,
signal,0,59,59,40,8,59,False,yes,1.1215908527374268,8,
noise,0,60,60,69,8,60,False,no,1.4631829261779785,8,
signal,0,61,61,28,8,61,True,yes,2.0637149810791016,8,
noise,0,62,62,61,8,62,True,no,1.1412250995635986,8,
noise,0,63,63,71,8,63,False,no,1.0834929943084717,8,
signal,0,64,64,24,8,64,True,no,1.54960298538208,8,
signal,0,65,65,30,8,65,True,noresponse,None,8,
signal,0,66,66,22,8,66,True,yes,1.2572731971740723,8,
noise,0,67,67,29,8,67,True,no,2.0882558822631836,8,
noise,0,68,68,3,8,68,False,no,1.1316609382629395,8,
noise,0,69,69,41,8,69,True,no,1.8111388683319092,8,
noise,0,70,70,11,8,70,True,no,1.3060030937194824,8,
signal,0,71,71,56,8,71,False,no,1.483924150466919,8,
noise,0,72,72,5,8,72,False,no,0.7806799411773682,8,
noise,0,73,73,1,8,73,True,no,1.6908559799194336,8,
noise,0,74,74,43,8,74,False,no,0.7985270023345947,8,
noise,0,75,75,17,8,75,True,no,1.385758876800537,8,
noise,0,76,76,31,8,76,True,no,0.8474159240722656,8,
signal,0,77,77,78,8,77,False,yes,1.09200119972229,8,
signal,0,78,78,8,8,78,False,yes,1.4737749099731445,8,
signal,0,79,79,58,8,79,False,yes,0.8527169227600098,8,
