condition,.thisRepN,.thisTrialN,.thisN,.thisIndex,block,trial,totalTrials,s1_state,s2_state,response,rt,pair,
noise,0,-1,-1,0,1,1,1,1,0,no,1.5678071975708008,10,
signal,0,-1,-1,0,1,2,2,0,1,noresponse,None,10,
signal,0,-1,-1,0,1,3,3,0,1,noresponse,None,10,
noise,0,-1,-1,0,1,4,4,1,0,no,0.9977920055389404,10,
signal,0,-1,-1,0,1,5,5,1,0,yes,1.3956470489501953,10,
noise,0,-1,-1,0,1,6,6,0,1,noresponse,None,10,
noise,0,-1,-1,0,1,7,7,0,1,noresponse,None,10,
signal,0,-1,-1,0,1,8,8,1,0,yes,1.559283971786499,10,
signal,0,-1,-1,0,1,9,9,0,1,noresponse,None,10,
signal,0,-1,-1,0,1,10,10,0,1,noresponse,None,10,
noise,0,-1,-1,0,1,11,11,0,1,noresponse,None,10,
noise,0,-1,-1,0,1,12,12,0,1,noresponse,None,10,
noise,0,-1,-1,0,1,13,13,0,1,noresponse,None,10,
signal,0,-1,-1,0,1,14,14,0,1,noresponse,None,10,
noise,0,-1,-1,0,1,15,15,0,1,noresponse,None,10,
signal,0,-1,-1,0,1,16,16,1,0,noresponse,None,10,
noise,0,-1,-1,0,1,17,17,1,0,no,1.836332082748413,10,
noise,0,-1,-1,0,1,18,18,1,0,no,1.1847350597381592,10,
noise,0,-1,-1,0,1,19,19,1,0,no,1.2593858242034912,10,
noise,0,-1,-1,0,1,20,20,0,1,noresponse,None,10,
noise,0,-1,-1,0,1,21,21,0,1,noresponse,None,10,
noise,0,-1,-1,0,1,22,22,0,1,noresponse,None,10,
signal,0,-1,-1,0,1,23,23,1,0,yes,1.4214699268341064,10,
noise,0,-1,-1,0,1,24,24,1,0,no,1.160140037536621,10,
noise,0,-1,-1,0,1,25,25,1,0,no,1.091836929321289,10,
signal,0,-1,-1,0,1,26,26,0,1,noresponse,None,10,
signal,0,-1,-1,0,1,27,27,1,0,yes,1.0466439723968506,10,
noise,0,-1,-1,0,1,28,28,0,1,noresponse,None,10,
noise,0,-1,-1,0,1,29,29,0,1,noresponse,None,10,
signal,0,-1,-1,0,1,30,30,1,0,yes,1.160917043685913,10,
noise,0,-1,-1,0,1,31,31,0,1,noresponse,None,10,
signal,0,-1,-1,0,1,32,32,0,1,noresponse,None,10,
noise,0,-1,-1,0,1,33,33,1,0,no,0.928333044052124,10,
signal,0,-1,-1,0,1,34,34,1,0,yes,1.1991019248962402,10,
signal,0,-1,-1,0,1,35,35,0,1,noresponse,None,10,
noise,0,-1,-1,0,1,36,36,1,0,no,1.075166940689087,10,
signal,0,-1,-1,0,1,37,37,1,0,yes,1.2847890853881836,10,
noise,0,-1,-1,0,1,38,38,1,0,no,1.3605740070343018,10,
signal,0,-1,-1,0,1,39,39,0,1,noresponse,None,10,
signal,0,-1,-1,0,1,40,40,1,0,yes,1.0799338817596436,10,
signal,0,-1,-1,0,1,41,41,0,1,noresponse,None,10,
noise,0,-1,-1,0,1,42,42,1,0,no,0.9845178127288818,10,
noise,0,-1,-1,0,1,43,43,0,1,noresponse,None,10,
signal,0,-1,-1,0,1,44,44,0,1,noresponse,None,10,
signal,0,-1,-1,0,1,45,45,1,0,yes,1.103682041168213,10,
signal,0,-1,-1,0,1,46,46,0,1,noresponse,None,10,
noise,0,-1,-1,0,1,47,47,0,1,noresponse,None,10,
noise,0,-1,-1,0,1,48,48,1,0,no,0.9503049850463867,10,
noise,0,-1,-1,0,1,49,49,0,1,noresponse,None,10,
signal,0,-1,-1,0,1,50,50,0,1,noresponse,None,10,
signal,0,-1,-1,0,1,51,51,1,0,yes,1.1630308628082275,10,
noise,0,-1,-1,0,1,52,52,0,1,noresponse,None,10,
signal,0,-1,-1,0,1,53,53,0,1,noresponse,None,10,
signal,0,-1,-1,0,1,54,54,0,1,noresponse,None,10,
signal,0,-1,-1,0,1,55,55,1,0,yes,0.9979519844055176,10,
signal,0,-1,-1,0,1,56,56,0,1,noresponse,None,10,
noise,0,-1,-1,0,1,57,57,1,0,no,1.142096996307373,10,
noise,0,-1,-1,0,1,58,58,1,0,no,1.0946719646453857,10,
noise,0,-1,-1,0,1,59,59,0,1,noresponse,None,10,
signal,0,-1,-1,0,1,60,60,1,0,yes,0.9413280487060547,10,
signal,0,-1,-1,0,1,61,61,1,0,yes,1.2245540618896484,10,
noise,0,-1,-1,0,1,62,62,1,0,no,0.932574987411499,10,
signal,0,-1,-1,0,1,63,63,0,1,noresponse,None,10,
signal,0,-1,-1,0,1,64,64,0,1,noresponse,None,10,
noise,0,-1,-1,0,1,65,65,1,0,no,1.230591058731079,10,
noise,0,-1,-1,0,1,66,66,0,1,noresponse,None,10,
signal,0,-1,-1,0,1,67,67,0,1,noresponse,None,10,
noise,0,-1,-1,0,1,68,68,1,0,no,1.7387449741363525,10,
signal,0,-1,-1,0,1,69,69,1,0,yes,0.9668781757354736,10,
noise,0,-1,-1,0,1,70,70,0,1,noresponse,None,10,
signal,0,-1,-1,0,1,71,71,0,1,noresponse,None,10,
signal,0,-1,-1,0,1,72,72,0,1,noresponse,None,10,
noise,0,-1,-1,0,1,73,73,0,1,noresponse,None,10,
signal,0,-1,-1,0,1,74,74,1,0,yes,0.9128880500793457,10,
signal,0,-1,-1,0,1,75,75,0,1,noresponse,None,10,
noise,0,-1,-1,0,1,76,76,0,1,noresponse,None,10,
signal,0,-1,-1,0,1,77,77,0,1,noresponse,None,10,
noise,0,-1,-1,0,1,78,78,0,1,noresponse,None,10,
signal,0,-1,-1,0,1,79,79,0,1,noresponse,None,10,
noise,0,-1,-1,0,1,80,80,1,0,no,1.0293669700622559,10,
signal,0,-1,-1,0,2,1,81,0,1,noresponse,None,10,
noise,0,-1,-1,0,2,2,82,1,0,no,1.0683820247650146,10,
noise,0,-1,-1,0,2,3,83,0,1,noresponse,None,10,
signal,0,-1,-1,0,2,4,84,0,1,noresponse,None,10,
signal,0,-1,-1,0,2,5,85,0,1,noresponse,None,10,
noise,0,-1,-1,0,2,6,86,0,1,noresponse,None,10,
noise,0,-1,-1,0,2,7,87,1,0,no,0.8938469886779785,10,
noise,0,-1,-1,0,2,8,88,1,0,no,1.0502328872680664,10,
signal,0,-1,-1,0,2,9,89,1,0,yes,1.1842529773712158,10,
signal,0,-1,-1,0,2,10,90,0,1,noresponse,None,10,
noise,0,-1,-1,0,2,11,91,1,0,no,0.8993749618530273,10,
signal,0,-1,-1,0,2,12,92,1,0,yes,1.058763027191162,10,
signal,0,-1,-1,0,2,13,93,0,1,noresponse,None,10,
noise,0,-1,-1,0,2,14,94,1,0,no,0.9970169067382812,10,
signal,0,-1,-1,0,2,15,95,1,0,yes,1.1188781261444092,10,
noise,0,-1,-1,0,2,16,96,1,0,no,0.9711790084838867,10,
noise,0,-1,-1,0,2,17,97,1,0,no,0.9508881568908691,10,
noise,0,-1,-1,0,2,18,98,1,0,no,1.1079418659210205,10,
signal,0,-1,-1,0,2,19,99,1,0,yes,0.9439361095428467,10,
noise,0,-1,-1,0,2,20,100,0,1,noresponse,None,10,
noise,0,-1,-1,0,2,21,101,0,1,noresponse,None,10,
signal,0,-1,-1,0,2,22,102,0,1,noresponse,None,10,
signal,0,-1,-1,0,2,23,103,1,0,yes,1.1982650756835938,10,
signal,0,-1,-1,0,2,24,104,1,0,yes,1.4345800876617432,10,
noise,0,-1,-1,0,2,25,105,0,1,noresponse,None,10,
noise,0,-1,-1,0,2,26,106,1,0,no,1.0975890159606934,10,
noise,0,-1,-1,0,2,27,107,1,0,no,0.9069092273712158,10,
signal,0,-1,-1,0,2,28,108,0,1,noresponse,None,10,
signal,0,-1,-1,0,2,29,109,0,1,noresponse,None,10,
signal,0,-1,-1,0,2,30,110,1,0,yes,1.0820960998535156,10,
noise,0,-1,-1,0,2,31,111,1,0,no,1.0874969959259033,10,
noise,0,-1,-1,0,2,32,112,0,1,noresponse,None,10,
noise,0,-1,-1,0,2,33,113,0,1,noresponse,None,10,
signal,0,-1,-1,0,2,34,114,0,1,noresponse,None,10,
signal,0,-1,-1,0,2,35,115,1,0,yes,1.0230062007904053,10,
noise,0,-1,-1,0,2,36,116,0,1,noresponse,None,10,
signal,0,-1,-1,0,2,37,117,0,1,noresponse,None,10,
signal,0,-1,-1,0,2,38,118,0,1,noresponse,None,10,
signal,0,-1,-1,0,2,39,119,1,0,yes,1.105576992034912,10,
signal,0,-1,-1,0,2,40,120,1,0,yes,0.9932417869567871,10,
noise,0,-1,-1,0,2,41,121,0,1,noresponse,None,10,
noise,0,-1,-1,0,2,42,122,0,1,noresponse,None,10,
signal,0,-1,-1,0,2,43,123,0,1,noresponse,None,10,
noise,0,-1,-1,0,2,44,124,0,1,noresponse,None,10,
noise,0,-1,-1,0,2,45,125,1,0,no,0.9512531757354736,10,
noise,0,-1,-1,0,2,46,126,1,0,no,0.8833801746368408,10,
signal,0,-1,-1,0,2,47,127,1,0,yes,0.9522988796234131,10,
signal,0,-1,-1,0,2,48,128,1,0,yes,0.8966848850250244,10,
signal,0,-1,-1,0,2,49,129,0,1,noresponse,None,10,
signal,0,-1,-1,0,2,50,130,1,0,yes,1.0679070949554443,10,
noise,0,-1,-1,0,2,51,131,1,0,no,0.8373799324035645,10,
noise,0,-1,-1,0,2,52,132,1,0,no,0.85440993309021,10,
noise,0,-1,-1,0,2,53,133,0,1,noresponse,None,10,
noise,0,-1,-1,0,2,54,134,0,1,noresponse,None,10,
signal,0,-1,-1,0,2,55,135,1,0,yes,0.8560068607330322,10,
noise,0,-1,-1,0,2,56,136,1,0,no,1.065342903137207,10,
signal,0,-1,-1,0,2,57,137,0,1,noresponse,None,10,
noise,0,-1,-1,0,2,58,138,0,1,noresponse,None,10,
noise,0,-1,-1,0,2,59,139,0,1,noresponse,None,10,
noise,0,-1,-1,0,2,60,140,0,1,noresponse,None,10,
signal,0,-1,-1,0,2,61,141,1,0,yes,1.2172110080718994,10,
signal,0,-1,-1,0,2,62,142,0,1,noresponse,None,10,
signal,0,-1,-1,0,2,63,143,1,0,yes,0.9371850490570068,10,
signal,0,-1,-1,0,2,64,144,1,0,yes,0.8613200187683105,10,
noise,0,-1,-1,0,2,65,145,0,1,noresponse,None,10,
noise,0,-1,-1,0,2,66,146,1,0,no,0.8584167957305908,10,
noise,0,-1,-1,0,2,67,147,1,0,no,0.9477641582489014,10,
noise,0,-1,-1,0,2,68,148,0,1,noresponse,None,10,
signal,0,-1,-1,0,2,69,149,1,0,yes,1.1079909801483154,10,
signal,0,-1,-1,0,2,70,150,1,0,yes,0.8510749340057373,10,
noise,0,-1,-1,0,2,71,151,0,1,noresponse,None,10,
signal,0,-1,-1,0,2,72,152,1,0,yes,0.8391239643096924,10,
noise,0,-1,-1,0,2,73,153,0,1,noresponse,None,10,
noise,0,-1,-1,0,2,74,154,1,0,no,0.9794940948486328,10,
signal,0,-1,-1,0,2,75,155,1,0,yes,0.9064781665802002,10,
signal,0,-1,-1,0,2,76,156,1,0,yes,0.828016996383667,10,
signal,0,-1,-1,0,2,77,157,1,0,yes,0.9711568355560303,10,
signal,0,-1,-1,0,2,78,158,1,0,yes,0.8026161193847656,10,
noise,0,-1,-1,0,2,79,159,1,0,no,0.8299040794372559,10,
signal,0,-1,-1,0,2,80,160,1,0,yes,0.7182791233062744,10,
noise,0,-1,-1,0,3,1,161,1,0,noresponse,None,10,
noise,0,-1,-1,0,3,2,162,0,1,noresponse,None,10,
signal,0,-1,-1,0,3,3,163,1,0,yes,0.8647429943084717,10,
noise,0,-1,-1,0,3,4,164,0,1,noresponse,None,10,
noise,0,-1,-1,0,3,5,165,0,1,noresponse,None,10,
signal,0,-1,-1,0,3,6,166,1,0,yes,0.950049877166748,10,
signal,0,-1,-1,0,3,7,167,1,0,yes,0.7866599559783936,10,
signal,0,-1,-1,0,3,8,168,0,1,noresponse,None,10,
signal,0,-1,-1,0,3,9,169,0,1,noresponse,None,10,
noise,0,-1,-1,0,3,10,170,0,1,noresponse,None,10,
signal,0,-1,-1,0,3,11,171,0,1,noresponse,None,10,
noise,0,-1,-1,0,3,12,172,1,0,no,1.258051872253418,10,
signal,0,-1,-1,0,3,13,173,1,0,yes,0.8103511333465576,10,
noise,0,-1,-1,0,3,14,174,1,0,no,0.884026050567627,10,
noise,0,-1,-1,0,3,15,175,0,1,noresponse,None,10,
signal,0,-1,-1,0,3,16,176,1,0,yes,1.321937084197998,10,
signal,0,-1,-1,0,3,17,177,1,0,yes,0.7989959716796875,10,
noise,0,-1,-1,0,3,18,178,0,1,noresponse,None,10,
noise,0,-1,-1,0,3,19,179,0,1,noresponse,None,10,
noise,0,-1,-1,0,3,20,180,1,0,no,0.9285690784454346,10,
signal,0,-1,-1,0,3,21,181,0,1,noresponse,None,10,
noise,0,-1,-1,0,3,22,182,0,1,noresponse,None,10,
signal,0,-1,-1,0,3,23,183,1,0,yes,0.925145149230957,10,
noise,0,-1,-1,0,3,24,184,1,0,no,1.108337163925171,10,
signal,0,-1,-1,0,3,25,185,0,1,noresponse,None,10,
noise,0,-1,-1,0,3,26,186,0,1,noresponse,None,10,
signal,0,-1,-1,0,3,27,187,1,0,yes,0.8694660663604736,10,
noise,0,-1,-1,0,3,28,188,1,0,no,0.7823469638824463,10,
noise,0,-1,-1,0,3,29,189,0,1,noresponse,None,10,
signal,0,-1,-1,0,3,30,190,0,1,noresponse,None,10,
signal,0,-1,-1,0,3,31,191,1,0,yes,0.8836030960083008,10,
signal,0,-1,-1,0,3,32,192,1,0,yes,0.7073619365692139,10,
noise,0,-1,-1,0,3,33,193,0,1,noresponse,None,10,
signal,0,-1,-1,0,3,34,194,0,1,noresponse,None,10,
signal,0,-1,-1,0,3,35,195,1,0,yes,0.8418159484863281,10,
noise,0,-1,-1,0,3,36,196,0,1,noresponse,None,10,
noise,0,-1,-1,0,3,37,197,1,0,no,0.9437339305877686,10,
noise,0,-1,-1,0,3,38,198,1,0,no,0.9408807754516602,10,
noise,0,-1,-1,0,3,39,199,0,1,noresponse,None,10,
signal,0,-1,-1,0,3,40,200,0,1,noresponse,None,10,
noise,0,-1,-1,0,3,41,201,0,1,noresponse,None,10,
signal,0,-1,-1,0,3,42,202,1,0,yes,0.7620618343353271,10,
noise,0,-1,-1,0,3,43,203,0,1,noresponse,None,10,
noise,0,-1,-1,0,3,44,204,1,0,no,1.002351999282837,10,
signal,0,-1,-1,0,3,45,205,0,1,noresponse,None,10,
noise,0,-1,-1,0,3,46,206,0,1,noresponse,None,10,
signal,0,-1,-1,0,3,47,207,1,0,yes,0.6520900726318359,10,
signal,0,-1,-1,0,3,48,208,1,0,yes,0.8133988380432129,10,
noise,0,-1,-1,0,3,49,209,0,1,noresponse,None,10,
signal,0,-1,-1,0,3,50,210,1,0,yes,0.7662928104400635,10,
signal,0,-1,-1,0,3,51,211,1,0,yes,0.9625039100646973,10,
signal,0,-1,-1,0,3,52,212,0,1,noresponse,None,10,
noise,0,-1,-1,0,3,53,213,0,1,noresponse,None,10,
noise,0,-1,-1,0,3,54,214,0,1,noresponse,None,10,
signal,0,-1,-1,0,3,55,215,1,0,yes,0.747229814529419,10,
noise,0,-1,-1,0,3,56,216,1,0,no,1.1206629276275635,10,
signal,0,-1,-1,0,3,57,217,0,1,noresponse,None,10,
signal,0,-1,-1,0,3,58,218,1,0,yes,0.7972309589385986,10,
signal,0,-1,-1,0,3,59,219,1,0,yes,0.7157628536224365,10,
signal,0,-1,-1,0,3,60,220,0,1,noresponse,None,10,
signal,0,-1,-1,0,3,61,221,1,0,yes,0.9242420196533203,10,
noise,0,-1,-1,0,3,62,222,1,0,no,0.8172850608825684,10,
noise,0,-1,-1,0,3,63,223,1,0,no,0.798969030380249,10,
signal,0,-1,-1,0,3,64,224,0,1,noresponse,None,10,
noise,0,-1,-1,0,3,65,225,1,0,no,0.846060037612915,10,
signal,0,-1,-1,0,3,66,226,1,0,yes,1.020677089691162,10,
noise,0,-1,-1,0,3,67,227,1,0,no,0.766808032989502,10,
noise,0,-1,-1,0,3,68,228,1,0,no,0.9327011108398438,10,
noise,0,-1,-1,0,3,69,229,0,1,noresponse,None,10,
noise,0,-1,-1,0,3,70,230,0,1,noresponse,None,10,
noise,0,-1,-1,0,3,71,231,1,0,no,1.2769520282745361,10,
signal,0,-1,-1,0,3,72,232,1,0,yes,1.1909661293029785,10,
noise,0,-1,-1,0,3,73,233,1,0,no,0.9187750816345215,10,
signal,0,-1,-1,0,3,74,234,1,0,yes,0.8730177879333496,10,
noise,0,-1,-1,0,3,75,235,0,1,noresponse,None,10,
signal,0,-1,-1,0,3,76,236,1,0,yes,1.2841739654541016,10,
signal,0,-1,-1,0,3,77,237,0,1,noresponse,None,10,
noise,0,-1,-1,0,3,78,238,1,0,no,1.544801950454712,10,
signal,0,-1,-1,0,3,79,239,0,1,noresponse,None,10,
signal,0,-1,-1,0,3,80,240,1,0,yes,0.8361248970031738,10,
noise,0,-1,-1,0,4,1,241,0,1,noresponse,None,10,
noise,0,-1,-1,0,4,2,242,1,0,no,0.9222488403320312,10,
noise,0,-1,-1,0,4,3,243,1,0,no,1.0068140029907227,10,
signal,0,-1,-1,0,4,4,244,0,1,noresponse,None,10,
noise,0,-1,-1,0,4,5,245,0,1,noresponse,None,10,
signal,0,-1,-1,0,4,6,246,0,1,noresponse,None,10,
signal,0,-1,-1,0,4,7,247,0,1,noresponse,None,10,
noise,0,-1,-1,0,4,8,248,0,1,noresponse,None,10,
noise,0,-1,-1,0,4,9,249,0,1,noresponse,None,10,
signal,0,-1,-1,0,4,10,250,1,0,yes,1.7837328910827637,10,
noise,0,-1,-1,0,4,11,251,0,1,noresponse,None,10,
signal,0,-1,-1,0,4,12,252,0,1,noresponse,None,10,
signal,0,-1,-1,0,4,13,253,1,0,yes,0.7952871322631836,10,
signal,0,-1,-1,0,4,14,254,1,0,yes,0.7392330169677734,10,
signal,0,-1,-1,0,4,15,255,1,0,yes,0.7378849983215332,10,
noise,0,-1,-1,0,4,16,256,0,1,noresponse,None,10,
noise,0,-1,-1,0,4,17,257,1,0,no,0.8465890884399414,10,
signal,0,-1,-1,0,4,18,258,1,0,yes,0.9033348560333252,10,
signal,0,-1,-1,0,4,19,259,0,1,noresponse,None,10,
noise,0,-1,-1,0,4,20,260,1,0,no,0.978538990020752,10,
noise,0,-1,-1,0,4,21,261,0,1,noresponse,None,10,
signal,0,-1,-1,0,4,22,262,0,1,noresponse,None,10,
noise,0,-1,-1,0,4,23,263,1,0,no,0.8126580715179443,10,
signal,0,-1,-1,0,4,24,264,1,0,yes,0.9844470024108887,10,
noise,0,-1,-1,0,4,25,265,1,0,no,0.8518280982971191,10,
noise,0,-1,-1,0,4,26,266,0,1,noresponse,None,10,
signal,0,-1,-1,0,4,27,267,0,1,noresponse,None,10,
noise,0,-1,-1,0,4,28,268,0,1,noresponse,None,10,
signal,0,-1,-1,0,4,29,269,0,1,noresponse,None,10,
signal,0,-1,-1,0,4,30,270,0,1,noresponse,None,10,
signal,0,-1,-1,0,4,31,271,0,1,noresponse,None,10,
signal,0,-1,-1,0,4,32,272,0,1,noresponse,None,10,
noise,0,-1,-1,0,4,33,273,1,0,no,0.9067270755767822,10,
noise,0,-1,-1,0,4,34,274,0,1,noresponse,None,10,
noise,0,-1,-1,0,4,35,275,0,1,noresponse,None,10,
signal,0,-1,-1,0,4,36,276,0,1,noresponse,None,10,
signal,0,-1,-1,0,4,37,277,0,1,noresponse,None,10,
noise,0,-1,-1,0,4,38,278,1,0,no,0.9502148628234863,10,
signal,0,-1,-1,0,4,39,279,0,1,noresponse,None,10,
noise,0,-1,-1,0,4,40,280,1,0,no,0.8758740425109863,10,
signal,0,-1,-1,0,4,41,281,0,1,noresponse,None,10,
signal,0,-1,-1,0,4,42,282,0,1,noresponse,None,10,
signal,0,-1,-1,0,4,43,283,0,1,noresponse,None,10,
noise,0,-1,-1,0,4,44,284,0,1,noresponse,None,10,
signal,0,-1,-1,0,4,45,285,0,1,noresponse,None,10,
signal,0,-1,-1,0,4,46,286,1,0,yes,0.9362280368804932,10,
signal,0,-1,-1,0,4,47,287,1,0,yes,0.7030479907989502,10,
noise,0,-1,-1,0,4,48,288,1,0,no,0.9578468799591064,10,
signal,0,-1,-1,0,4,49,289,0,1,noresponse,None,10,
signal,0,-1,-1,0,4,50,290,0,1,noresponse,None,10,
signal,0,-1,-1,0,4,51,291,0,1,noresponse,None,10,
noise,0,-1,-1,0,4,52,292,1,0,no,1.1253738403320312,10,
signal,0,-1,-1,0,4,53,293,0,1,noresponse,None,10,
signal,0,-1,-1,0,4,54,294,1,0,yes,0.9160211086273193,10,
noise,0,-1,-1,0,4,55,295,1,0,no,0.8926968574523926,10,
noise,0,-1,-1,0,4,56,296,0,1,noresponse,None,10,
noise,0,-1,-1,0,4,57,297,1,0,no,0.8618581295013428,10,
noise,0,-1,-1,0,4,58,298,0,1,noresponse,None,10,
noise,0,-1,-1,0,4,59,299,1,0,no,0.9747109413146973,10,
signal,0,-1,-1,0,4,60,300,0,1,noresponse,None,10,
noise,0,-1,-1,0,4,61,301,0,1,noresponse,None,10,
noise,0,-1,-1,0,4,62,302,1,0,no,0.8919010162353516,10,
noise,0,-1,-1,0,4,63,303,1,0,no,1.0340309143066406,10,
noise,0,-1,-1,0,4,64,304,1,0,no,1.6174509525299072,10,
signal,0,-1,-1,0,4,65,305,0,1,noresponse,None,10,
signal,0,-1,-1,0,4,66,306,0,1,noresponse,None,10,
noise,0,-1,-1,0,4,67,307,0,1,noresponse,None,10,
signal,0,-1,-1,0,4,68,308,0,1,noresponse,None,10,
signal,0,-1,-1,0,4,69,309,0,1,noresponse,None,10,
signal,0,-1,-1,0,4,70,310,1,0,yes,0.9492170810699463,10,
noise,0,-1,-1,0,4,71,311,0,1,noresponse,None,10,
noise,0,-1,-1,0,4,72,312,1,0,no,0.8225719928741455,10,
noise,0,-1,-1,0,4,73,313,1,0,no,0.8831160068511963,10,
noise,0,-1,-1,0,4,74,314,1,0,no,0.8303940296173096,10,
noise,0,-1,-1,0,4,75,315,1,0,no,1.0852079391479492,10,
signal,0,-1,-1,0,4,76,316,0,1,noresponse,None,10,
signal,0,-1,-1,0,4,77,317,0,1,noresponse,None,10,
noise,0,-1,-1,0,4,78,318,1,0,no,0.9222822189331055,10,
signal,0,-1,-1,0,4,79,319,1,0,yes,0.8544719219207764,10,
noise,0,-1,-1,0,4,80,320,0,1,noresponse,None,10,
