condition,.thisRepN,.thisTrialN,.thisN,.thisIndex,block,trial,totalTrials,s1_state,s2_state,response,rt,pair,
noise,0,-1,-1,0,1,1,1,1,0,no,1.3177440166473389,2,
noise,0,-1,-1,0,1,2,2,0,1,no,1.0046651363372803,2,
noise,0,-1,-1,0,1,3,3,0,1,no,0.784060001373291,2,
signal,0,-1,-1,0,1,4,4,0,1,yes,0.7505371570587158,2,
signal,0,-1,-1,0,1,5,5,0,1,yes,1.0507750511169434,2,
noise,0,-1,-1,0,1,6,6,1,0,no,0.8174939155578613,2,
signal,0,-1,-1,0,1,7,7,1,0,yes,0.9673569202423096,2,
signal,0,-1,-1,0,1,8,8,1,0,yes,1.0209898948669434,2,
signal,0,-1,-1,0,1,9,9,1,0,yes,0.8005990982055664,2,
signal,0,-1,-1,0,1,10,10,0,1,yes,0.9507730007171631,2,
noise,0,-1,-1,0,1,11,11,0,1,no,1.0508880615234375,2,
signal,0,-1,-1,0,1,12,12,1,0,yes,0.6673028469085693,2,
signal,0,-1,-1,0,1,13,13,0,1,yes,1.0342209339141846,2,
noise,0,-1,-1,0,1,14,14,1,0,no,0.9842820167541504,2,
signal,0,-1,-1,0,1,15,15,0,1,yes,0.8553740978240967,2,
noise,0,-1,-1,0,1,16,16,1,0,no,0.8009040355682373,2,
noise,0,-1,-1,0,1,17,17,1,0,no,1.034221887588501,2,
signal,0,-1,-1,0,1,18,18,1,0,yes,0.7838859558105469,2,
noise,0,-1,-1,0,1,19,19,0,1,no,0.9509749412536621,2,
noise,0,-1,-1,0,1,20,20,1,0,no,0.7675230503082275,2,
noise,0,-1,-1,0,1,21,21,0,1,no,1.0510671138763428,2,
noise,0,-1,-1,0,1,22,22,1,0,no,0.8675110340118408,2,
signal,0,-1,-1,0,1,23,23,0,1,yes,0.8507912158966064,2,
noise,0,-1,-1,0,1,24,24,1,0,no,1.4679720401763916,2,
signal,0,-1,-1,0,1,25,25,0,1,yes,1.1176631450653076,2,
signal,0,-1,-1,0,1,26,26,0,1,yes,1.367668867111206,2,
noise,0,-1,-1,0,1,27,27,0,1,no,1.1043450832366943,2,
signal,0,-1,-1,0,1,28,28,0,1,yes,0.820904016494751,2,
noise,0,-1,-1,0,1,29,29,1,0,no,1.2845909595489502,2,
signal,0,-1,-1,0,1,30,30,0,1,yes,1.2177600860595703,2,
signal,0,-1,-1,0,1,31,31,1,0,yes,1.1676881313323975,2,
noise,0,-1,-1,0,1,32,32,0,1,no,1.08439302444458,2,
noise,0,-1,-1,0,1,33,33,1,0,no,0.9544010162353516,2,
noise,0,-1,-1,0,1,34,34,0,1,no,1.1677570343017578,2,
signal,0,-1,-1,0,1,35,35,0,1,yes,0.7672410011291504,2,
signal,0,-1,-1,0,1,36,36,1,0,yes,0.9674429893493652,2,
noise,0,-1,-1,0,1,37,37,0,1,no,1.6181950569152832,2,
noise,0,-1,-1,0,1,38,38,1,0,no,1.2011761665344238,2,
noise,0,-1,-1,0,1,39,39,1,0,no,0.8173909187316895,2,
noise,0,-1,-1,0,1,40,40,0,1,no,1.0677409172058105,2,
noise,0,-1,-1,0,1,41,41,1,0,no,1.234565019607544,2,
signal,0,-1,-1,0,1,42,42,0,1,yes,0.7840421199798584,2,
signal,0,-1,-1,0,1,43,43,0,1,yes,0.9840672016143799,2,
signal,0,-1,-1,0,1,44,44,1,0,yes,0.8212430477142334,2,
noise,0,-1,-1,0,1,45,45,1,0,no,0.8007049560546875,2,
signal,0,-1,-1,0,1,46,46,0,1,yes,1.1510381698608398,2,
noise,0,-1,-1,0,1,47,47,0,1,no,1.1509649753570557,2,
noise,0,-1,-1,0,1,48,48,1,0,no,0.7841789722442627,2,
signal,0,-1,-1,0,1,49,49,0,1,yes,1.1883981227874756,2,
signal,0,-1,-1,0,1,50,50,0,1,yes,0.8506419658660889,2,
signal,0,-1,-1,0,1,51,51,0,1,yes,1.1008191108703613,2,
signal,0,-1,-1,0,1,52,52,0,1,yes,1.0508050918579102,2,
signal,0,-1,-1,0,1,53,53,1,0,yes,0.9508309364318848,2,
noise,0,-1,-1,0,1,54,54,0,1,no,1.0677249431610107,2,
signal,0,-1,-1,0,1,55,55,1,0,yes,0.850775957107544,2,
noise,0,-1,-1,0,1,56,56,1,0,no,1.6179978847503662,2,
noise,0,-1,-1,0,1,57,57,0,1,no,1.2345490455627441,2,
signal,0,-1,-1,0,1,58,58,0,1,yes,1.3343539237976074,2,
noise,0,-1,-1,0,1,59,59,1,0,no,0.9676339626312256,2,
noise,0,-1,-1,0,1,60,60,1,0,no,0.6672728061676025,2,
noise,0,-1,-1,0,1,61,61,0,1,no,1.3513250350952148,2,
noise,0,-1,-1,0,1,62,62,0,1,no,1.2844219207763672,2,
signal,0,-1,-1,0,1,63,63,1,0,yes,0.7840700149536133,2,
signal,0,-1,-1,0,1,64,64,1,0,yes,0.8005809783935547,2,
noise,0,-1,-1,0,1,65,65,1,0,no,0.7005939483642578,2,
signal,0,-1,-1,0,1,66,66,0,1,yes,1.1343891620635986,2,
signal,0,-1,-1,0,1,67,67,1,0,yes,0.7378511428833008,2,
noise,0,-1,-1,0,1,68,68,1,0,no,0.8006889820098877,2,
signal,0,-1,-1,0,1,69,69,0,1,yes,1.2677831649780273,2,
noise,0,-1,-1,0,1,70,70,0,1,no,1.1677300930023193,2,
signal,0,-1,-1,0,1,71,71,0,1,yes,0.7672300338745117,2,
noise,0,-1,-1,0,1,72,72,0,1,no,0.6540539264678955,2,
signal,0,-1,-1,0,1,73,73,0,1,yes,1.4844510555267334,2,
signal,0,-1,-1,0,1,74,74,0,1,yes,1.33433198928833,2,
signal,0,-1,-1,0,1,75,75,1,0,yes,0.900813102722168,2,
noise,0,-1,-1,0,1,76,76,0,1,no,1.151149034500122,2,
signal,0,-1,-1,0,1,77,77,0,1,yes,1.1675159931182861,2,
noise,0,-1,-1,0,1,78,78,1,0,no,0.9711530208587646,2,
signal,0,-1,-1,0,1,79,79,0,1,yes,1.7219018936157227,2,
noise,0,-1,-1,0,1,80,80,1,0,no,0.8508660793304443,2,
noise,0,-1,-1,0,2,1,81,1,0,no,0.8673441410064697,2,
noise,0,-1,-1,0,2,2,82,1,0,no,0.9842081069946289,2,
signal,0,-1,-1,0,2,3,83,0,1,yes,1.0842390060424805,2,
signal,0,-1,-1,0,2,4,84,1,0,yes,1.0342578887939453,2,
signal,0,-1,-1,0,2,5,85,1,0,yes,0.8005750179290771,2,
noise,0,-1,-1,0,2,6,86,0,1,no,1.0843620300292969,2,
noise,0,-1,-1,0,2,7,87,1,0,no,0.9213669300079346,2,
signal,0,-1,-1,0,2,8,88,0,1,yes,1.1009118556976318,2,
signal,0,-1,-1,0,2,9,89,0,1,yes,1.1841940879821777,2,
signal,0,-1,-1,0,2,10,90,1,0,yes,1.0381040573120117,2,
signal,0,-1,-1,0,2,11,91,1,0,yes,0.9506828784942627,2,
noise,0,-1,-1,0,2,12,92,1,0,no,0.9674811363220215,2,
signal,0,-1,-1,0,2,13,93,0,1,yes,1.4011130332946777,2,
signal,0,-1,-1,0,2,14,94,0,1,yes,1.2842540740966797,2,
noise,0,-1,-1,0,2,15,95,0,1,no,1.5012600421905518,2,
noise,0,-1,-1,0,2,16,96,1,0,no,0.9342939853668213,2,
signal,0,-1,-1,0,2,17,97,0,1,yes,1.284437894821167,2,
noise,0,-1,-1,0,2,18,98,0,1,no,1.0675859451293945,2,
signal,0,-1,-1,0,2,19,99,1,0,yes,0.7006649971008301,2,
noise,0,-1,-1,0,2,20,100,0,1,no,1.0677030086517334,2,
noise,0,-1,-1,0,2,21,101,1,0,no,1.1512410640716553,2,
signal,0,-1,-1,0,2,22,102,1,0,yes,0.7875139713287354,2,
noise,0,-1,-1,0,2,23,103,1,0,no,0.8508079051971436,2,
signal,0,-1,-1,0,2,24,104,1,0,yes,0.8673129081726074,2,
signal,0,-1,-1,0,2,25,105,1,0,yes,1.334338903427124,2,
noise,0,-1,-1,0,2,26,106,1,0,no,1.2712230682373047,2,
signal,0,-1,-1,0,2,27,107,0,1,yes,1.2844831943511963,2,
noise,0,-1,-1,0,2,28,108,0,1,no,1.1377389430999756,2,
noise,0,-1,-1,0,2,29,109,0,1,no,1.3044569492340088,2,
noise,0,-1,-1,0,2,30,110,1,0,no,0.700814962387085,2,
noise,0,-1,-1,0,2,31,111,1,0,no,0.7340009212493896,2,
signal,0,-1,-1,0,2,32,112,0,1,yes,1.4012420177459717,2,
signal,0,-1,-1,0,2,33,113,0,1,yes,1.9181439876556396,2,
noise,0,-1,-1,0,2,34,114,1,0,no,0.8676271438598633,2,
signal,0,-1,-1,0,2,35,115,1,0,yes,1.004378080368042,2,
noise,0,-1,-1,0,2,36,116,1,0,no,0.8841419219970703,2,
signal,0,-1,-1,0,2,37,117,1,0,yes,0.9006938934326172,2,
signal,0,-1,-1,0,2,38,118,0,1,yes,1.3678510189056396,2,
signal,0,-1,-1,0,2,39,119,1,0,yes,1.6681489944458008,2,
noise,0,-1,-1,0,2,40,120,0,1,no,1.2678968906402588,2,
noise,0,-1,-1,0,2,41,121,1,0,no,1.2846438884735107,2,
noise,0,-1,-1,0,2,42,122,0,1,no,0.9545118808746338,2,
signal,0,-1,-1,0,2,43,123,0,1,yes,1.284296989440918,2,
signal,0,-1,-1,0,2,44,124,1,0,yes,0.7673401832580566,2,
noise,0,-1,-1,0,2,45,125,0,1,no,1.501410961151123,2,
noise,0,-1,-1,0,2,46,126,1,0,no,1.1879870891571045,2,
noise,0,-1,-1,0,2,47,127,0,1,no,1.0009989738464355,2,
noise,0,-1,-1,0,2,48,128,1,0,no,0.8508510589599609,2,
signal,0,-1,-1,0,2,49,129,1,0,yes,0.7338600158691406,2,
signal,0,-1,-1,0,2,50,130,1,0,yes,0.9506728649139404,2,
signal,0,-1,-1,0,2,51,131,0,1,yes,1.2177801132202148,2,
noise,0,-1,-1,0,2,52,132,1,0,no,0.9711248874664307,2,
signal,0,-1,-1,0,2,53,133,1,0,yes,0.8339710235595703,2,
signal,0,-1,-1,0,2,54,134,1,0,yes,0.7708759307861328,2,
noise,0,-1,-1,0,2,55,135,1,0,no,0.7006359100341797,2,
noise,0,-1,-1,0,2,56,136,0,1,no,1.1177918910980225,2,
noise,0,-1,-1,0,2,57,137,0,1,no,1.284411907196045,2,
signal,0,-1,-1,0,2,58,138,0,1,yes,1.150820016860962,2,
noise,0,-1,-1,0,2,59,139,0,1,no,1.034203052520752,2,
signal,0,-1,-1,0,2,60,140,0,1,yes,0.984083890914917,2,
signal,0,-1,-1,0,2,61,141,1,0,yes,1.0009229183197021,2,
noise,0,-1,-1,0,2,62,142,1,0,no,0.8674569129943848,2,
signal,0,-1,-1,0,2,63,143,0,1,yes,1.3845291137695312,2,
noise,0,-1,-1,0,2,64,144,0,1,no,1.0175690650939941,2,
noise,0,-1,-1,0,2,65,145,0,1,no,1.167733907699585,2,
noise,0,-1,-1,0,2,66,146,0,1,no,1.1677300930023193,2,
signal,0,-1,-1,0,2,67,147,1,0,yes,0.9842019081115723,2,
signal,0,-1,-1,0,2,68,148,1,0,yes,0.783905029296875,2,
signal,0,-1,-1,0,2,69,149,1,0,yes,0.8005428314208984,2,
signal,0,-1,-1,0,2,70,150,0,1,yes,1.3011140823364258,2,
signal,0,-1,-1,0,2,71,151,0,1,yes,1.4010488986968994,2,
noise,0,-1,-1,0,2,72,152,0,1,no,1.2211151123046875,2,
signal,0,-1,-1,0,2,73,153,1,0,yes,1.551361083984375,2,
noise,0,-1,-1,0,2,74,154,0,1,no,1.1344349384307861,2,
noise,0,-1,-1,0,2,75,155,1,0,no,0.8342189788818359,2,
noise,0,-1,-1,0,2,76,156,1,0,no,0.787384033203125,2,
noise,0,-1,-1,0,2,77,157,1,0,no,0.750669002532959,2,
noise,0,-1,-1,0,2,78,158,0,1,no,1.2178080081939697,2,
signal,0,-1,-1,0,2,79,159,1,0,yes,1.184337854385376,2,
signal,0,-1,-1,0,2,80,160,1,0,yes,1.100822925567627,2,
