condition,.thisRepN,.thisTrialN,.thisN,.thisIndex,block,trial,totalTrials,s1_state,s2_state,response,rt,pair,
signal,0,-1,-1,0,1,1,1,0,1,yes,1.1820709705352783,11,
signal,0,-1,-1,0,1,2,2,0,1,yes,0.80712890625,11,
signal,0,-1,-1,0,1,3,3,0,1,yes,0.7801430225372314,11,
noise,0,-1,-1,0,1,4,4,0,1,no,0.8887341022491455,11,
signal,0,-1,-1,0,1,5,5,1,0,yes,1.1884238719940186,11,
signal,0,-1,-1,0,1,6,6,1,0,yes,1.0774598121643066,11,
signal,0,-1,-1,0,1,7,7,1,0,yes,0.7643909454345703,11,
noise,0,-1,-1,0,1,8,8,1,0,no,0.7852840423583984,11,
noise,0,-1,-1,0,1,9,9,0,1,no,1.2812879085540771,11,
signal,0,-1,-1,0,1,10,10,0,1,yes,0.9906988143920898,11,
noise,0,-1,-1,0,1,11,11,1,0,yes,0.9358890056610107,11,
noise,0,-1,-1,0,1,12,12,0,1,no,0.9236428737640381,11,
noise,0,-1,-1,0,1,13,13,1,0,no,0.8561499118804932,11,
noise,0,-1,-1,0,1,14,14,0,1,no,0.7328948974609375,11,
noise,0,-1,-1,0,1,15,15,0,1,no,1.1736831665039062,11,
noise,0,-1,-1,0,1,16,16,1,0,no,0.7932600975036621,11,
signal,0,-1,-1,0,1,17,17,0,1,yes,0.665302038192749,11,
signal,0,-1,-1,0,1,18,18,0,1,yes,1.0016939640045166,11,
signal,0,-1,-1,0,1,19,19,0,1,yes,0.7715859413146973,11,
signal,0,-1,-1,0,1,20,20,1,0,yes,0.7658119201660156,11,
noise,0,-1,-1,0,1,21,21,0,1,no,1.4594669342041016,11,
signal,0,-1,-1,0,1,22,22,1,0,yes,0.9857981204986572,11,
signal,0,-1,-1,0,1,23,23,0,1,no,1.1447570323944092,11,
signal,0,-1,-1,0,1,24,24,0,1,yes,1.2228989601135254,11,
signal,0,-1,-1,0,1,25,25,0,1,yes,0.9430439472198486,11,
noise,0,-1,-1,0,1,26,26,1,0,no,0.9498159885406494,11,
noise,0,-1,-1,0,1,27,27,0,1,no,1.9498090744018555,11,
signal,0,-1,-1,0,1,28,28,1,0,yes,1.3588149547576904,11,
signal,0,-1,-1,0,1,29,29,0,1,yes,1.2889459133148193,11,
signal,0,-1,-1,0,1,30,30,0,1,yes,1.0920329093933105,11,
noise,0,-1,-1,0,1,31,31,0,1,no,0.9763438701629639,11,
signal,0,-1,-1,0,1,32,32,1,0,noresponse,None,11,
noise,0,-1,-1,0,1,33,33,0,1,no,1.1470861434936523,11,
signal,0,-1,-1,0,1,34,34,1,0,no,0.982489824295044,11,
signal,0,-1,-1,0,1,35,35,0,1,yes,1.1102609634399414,11,
noise,0,-1,-1,0,1,36,36,1,0,no,1.1552479267120361,11,
noise,0,-1,-1,0,1,37,37,0,1,no,1.1144700050354004,11,
noise,0,-1,-1,0,1,38,38,1,0,no,1.5289549827575684,11,
noise,0,-1,-1,0,1,39,39,0,1,no,1.1341040134429932,11,
noise,0,-1,-1,0,1,40,40,0,1,no,1.420914888381958,11,
signal,0,-1,-1,0,1,41,41,1,0,yes,1.8821868896484375,11,
signal,0,-1,-1,0,1,42,42,0,1,yes,1.9706480503082275,11,
noise,0,-1,-1,0,1,43,43,1,0,no,0.9892668724060059,11,
noise,0,-1,-1,0,1,44,44,0,1,noresponse,None,11,
noise,0,-1,-1,0,1,45,45,1,0,no,0.9436211585998535,11,
noise,0,-1,-1,0,1,46,46,0,1,no,1.4009301662445068,11,
noise,0,-1,-1,0,1,47,47,1,0,noresponse,None,11,
noise,0,-1,-1,0,1,48,48,0,1,no,1.045137882232666,11,
signal,0,-1,-1,0,1,49,49,0,1,yes,1.0567810535430908,11,
noise,0,-1,-1,0,1,50,50,1,0,no,1.4326999187469482,11,
signal,0,-1,-1,0,1,51,51,1,0,yes,1.0620160102844238,11,
signal,0,-1,-1,0,1,52,52,0,1,yes,1.2948861122131348,11,
signal,0,-1,-1,0,1,53,53,1,0,yes,1.073951005935669,11,
signal,0,-1,-1,0,1,54,54,1,0,yes,1.3344762325286865,11,
noise,0,-1,-1,0,1,55,55,0,1,no,1.5005388259887695,11,
signal,0,-1,-1,0,1,56,56,0,1,yes,0.8867590427398682,11,
signal,0,-1,-1,0,1,57,57,0,1,yes,0.8098809719085693,11,
noise,0,-1,-1,0,1,58,58,0,1,yes,1.321099042892456,11,
noise,0,-1,-1,0,1,59,59,0,1,no,0.7575349807739258,11,
noise,0,-1,-1,0,1,60,60,0,1,no,0.7047078609466553,11,
signal,0,-1,-1,0,1,61,61,1,0,yes,1.2896780967712402,11,
noise,0,-1,-1,0,1,62,62,0,1,no,1.1369290351867676,11,
noise,0,-1,-1,0,1,63,63,1,0,noresponse,None,11,
noise,0,-1,-1,0,1,64,64,0,1,no,0.8286378383636475,11,
noise,0,-1,-1,0,1,65,65,0,1,no,1.1679120063781738,11,
signal,0,-1,-1,0,1,66,66,1,0,yes,1.6105079650878906,11,
signal,0,-1,-1,0,1,67,67,0,1,yes,1.9985709190368652,11,
noise,0,-1,-1,0,1,68,68,0,1,no,1.0323269367218018,11,
signal,0,-1,-1,0,1,69,69,1,0,yes,1.5449140071868896,11,
signal,0,-1,-1,0,1,70,70,1,0,yes,2.1107919216156006,11,
noise,0,-1,-1,0,1,71,71,1,0,no,1.9086699485778809,11,
noise,0,-1,-1,0,1,72,72,0,1,no,0.927314043045044,11,
signal,0,-1,-1,0,1,73,73,0,1,noresponse,None,11,
signal,0,-1,-1,0,1,74,74,0,1,no,1.1844580173492432,11,
noise,0,-1,-1,0,1,75,75,1,0,no,1.3961880207061768,11,
signal,0,-1,-1,0,1,76,76,0,1,yes,0.9960510730743408,11,
signal,0,-1,-1,0,1,77,77,1,0,noresponse,None,11,
noise,0,-1,-1,0,1,78,78,0,1,no,1.0637030601501465,11,
signal,0,-1,-1,0,1,79,79,1,0,yes,0.9067850112915039,11,
noise,0,-1,-1,0,1,80,80,0,1,no,0.8579800128936768,11,
noise,0,0,0,43,2,1,81,0,1,no,1.3055229187011719,11,
noise,0,1,1,77,2,2,82,0,1,no,0.8315348625183105,11,
noise,0,2,2,55,2,3,83,0,1,no,1.502676010131836,11,
noise,0,3,3,31,2,4,84,1,0,no,1.6496939659118652,11,
noise,0,4,4,27,2,5,85,1,0,no,1.2180578708648682,11,
signal,0,5,5,32,2,6,86,0,1,yes,1.154209852218628,11,
noise,0,6,6,5,2,7,87,0,1,no,1.5291390419006348,11,
signal,0,7,7,24,2,8,88,1,0,yes,0.9667079448699951,11,
signal,0,8,8,38,2,9,89,0,1,yes,1.0920300483703613,11,
signal,0,9,9,68,2,10,90,0,1,yes,1.408607006072998,11,
signal,0,10,10,40,2,11,91,0,1,yes,1.082352876663208,11,
signal,0,11,11,48,2,12,92,0,1,yes,0.7132270336151123,11,
noise,0,12,12,41,2,13,93,0,1,no,0.8896520137786865,11,
signal,0,13,13,22,2,14,94,0,1,yes,0.7959170341491699,11,
signal,0,14,14,28,2,15,95,0,1,yes,0.8066849708557129,11,
signal,0,15,15,62,2,16,96,0,1,yes,0.7041549682617188,11,
signal,0,16,16,44,2,17,97,1,0,yes,0.9868171215057373,11,
signal,0,17,17,64,2,18,98,0,1,yes,1.3183419704437256,11,
noise,0,18,18,11,2,19,99,0,1,no,1.0678279399871826,11,
noise,0,19,19,57,2,20,100,0,1,no,0.9780380725860596,11,
signal,0,20,20,76,2,21,101,0,1,yes,1.8266139030456543,11,
signal,0,21,21,16,2,22,102,1,0,yes,2.1371989250183105,11,
signal,0,22,22,8,2,23,103,0,1,noresponse,None,11,
noise,0,23,23,7,2,24,104,1,0,no,1.085103988647461,11,
signal,0,24,24,66,2,25,105,1,0,yes,1.3864150047302246,11,
signal,0,25,25,46,2,26,106,1,0,noresponse,None,11,
signal,0,26,26,4,2,27,107,1,0,noresponse,None,11,
signal,0,27,27,34,2,28,108,0,1,yes,1.1675639152526855,11,
noise,0,28,28,47,2,29,109,1,0,noresponse,None,11,
noise,0,29,29,13,2,30,110,0,1,no,2.234144926071167,11,
signal,0,30,30,0,2,31,111,1,0,noresponse,None,11,
noise,0,31,31,9,2,32,112,1,0,noresponse,None,11,
signal,0,32,32,12,2,33,113,1,0,noresponse,None,11,
signal,0,33,33,70,2,34,114,1,0,noresponse,None,11,
noise,0,34,34,23,2,35,115,1,0,noresponse,None,11,
noise,0,35,35,15,2,36,116,1,0,noresponse,None,11,
noise,0,36,36,25,2,37,117,0,1,no,1.130312204360962,11,
noise,0,37,37,59,2,38,118,1,0,noresponse,None,11,
noise,0,38,38,45,2,39,119,0,1,no,1.2325189113616943,11,
noise,0,39,39,67,2,40,120,1,0,noresponse,None,11,
noise,0,40,40,1,2,41,121,0,1,no,0.7515320777893066,11,
signal,0,41,41,18,2,42,122,0,1,yes,1.020625114440918,11,
noise,0,42,42,39,2,43,123,1,0,noresponse,None,11,
signal,0,43,43,52,2,44,124,1,0,noresponse,None,11,
signal,0,44,44,78,2,45,125,0,1,yes,0.9314429759979248,11,
signal,0,45,45,56,2,46,126,1,0,noresponse,None,11,
noise,0,46,46,79,2,47,127,0,1,no,1.006742000579834,11,
noise,0,47,47,29,2,48,128,1,0,noresponse,None,11,
signal,0,48,48,54,2,49,129,1,0,noresponse,None,11,
signal,0,49,49,2,2,50,130,0,1,yes,1.605733871459961,11,
signal,0,50,50,74,2,51,131,1,0,noresponse,None,11,
signal,0,51,51,50,2,52,132,1,0,noresponse,None,11,
signal,0,52,52,72,2,53,133,0,1,yes,2.1658339500427246,11,
noise,0,53,53,21,2,54,134,1,0,noresponse,None,11,
noise,0,54,54,75,2,55,135,0,1,no,1.6186249256134033,11,
signal,0,55,55,14,2,56,136,1,0,noresponse,None,11,
signal,0,56,56,36,2,57,137,1,0,noresponse,None,11,
signal,0,57,57,42,2,58,138,0,1,yes,0.8605151176452637,11,
noise,0,58,58,65,2,59,139,0,1,no,0.8998899459838867,11,
noise,0,59,59,51,2,60,140,0,1,no,1.2297542095184326,11,
noise,0,60,60,71,2,61,141,0,1,no,0.6472392082214355,11,
noise,0,61,61,37,2,62,142,0,1,no,0.5641200542449951,11,
noise,0,62,62,73,2,63,143,0,1,no,1.1975290775299072,11,
noise,0,63,63,35,2,64,144,1,0,noresponse,None,11,
noise,0,64,64,33,2,65,145,0,1,no,0.7234649658203125,11,
signal,0,65,65,26,2,66,146,1,0,noresponse,None,11,
noise,0,66,66,19,2,67,147,0,1,no,0.697613000869751,11,
signal,0,67,67,10,2,68,148,1,0,noresponse,None,11,
noise,0,68,68,63,2,69,149,0,1,no,0.9185750484466553,11,
noise,0,69,69,49,2,70,150,0,1,no,0.8011510372161865,11,
noise,0,70,70,69,2,71,151,1,0,noresponse,None,11,
signal,0,71,71,30,2,72,152,1,0,noresponse,None,11,
signal,0,72,72,6,2,73,153,1,0,noresponse,None,11,
noise,0,73,73,3,2,74,154,0,1,no,1.2290270328521729,11,
signal,0,74,74,20,2,75,155,0,1,yes,1.0724389553070068,11,
noise,0,75,75,53,2,76,156,1,0,noresponse,None,11,
signal,0,76,76,60,2,77,157,1,0,noresponse,None,11,
signal,0,77,77,58,2,78,158,1,0,noresponse,None,11,
noise,0,78,78,61,2,79,159,0,1,no,1.0703139305114746,11,
noise,0,79,79,17,2,80,160,1,0,noresponse,None,11,
