condition,.thisRepN,.thisTrialN,.thisN,.thisIndex,block,trial,response,pair_id,chamber,threshold,
signal,0,-1,-1,0,1,0,7,9301,2,0.02041503914746663,
signal,0,-1,-1,0,1,1,7,9301,2,0.02041503914746663,
noise,0,-1,-1,0,1,2,8,9301,2,0.02041503914746663,
signal,0,-1,-1,0,1,3,8,9301,2,0.02041503914746663,
noise,0,-1,-1,0,1,4,8,9301,2,0.02041503914746663,
signal,0,-1,-1,0,1,5,8,9301,2,0.02041503914746663,
noise,0,-1,-1,0,1,6,8,9301,2,0.02041503914746663,
signal,0,-1,-1,0,1,7,8,9301,2,0.02041503914746663,
signal,0,-1,-1,0,1,8,8,9301,2,0.02041503914746663,
noise,0,-1,-1,0,1,9,8,9301,2,0.02041503914746663,
signal,0,-1,-1,0,1,10,8,9301,2,0.02041503914746663,
signal,0,-1,-1,0,1,11,8,9301,2,0.02041503914746663,
noise,0,-1,-1,0,1,12,8,9301,2,0.02041503914746663,
signal,0,-1,-1,0,1,13,8,9301,2,0.02041503914746663,
signal,0,-1,-1,0,1,14,7,9301,2,0.02041503914746663,
noise,0,-1,-1,0,1,15,8,9301,2,0.02041503914746663,
signal,0,-1,-1,0,1,16,8,9301,2,0.02041503914746663,
noise,0,-1,-1,0,1,17,8,9301,2,0.02041503914746663,
noise,0,-1,-1,0,1,18,8,9301,2,0.02041503914746663,
signal,0,-1,-1,0,1,19,8,9301,2,0.02041503914746663,
noise,0,-1,-1,0,1,20,8,9301,2,0.02041503914746663,
noise,0,-1,-1,0,1,21,8,9301,2,0.02041503914746663,
signal,0,-1,-1,0,1,22,7,9301,2,0.02041503914746663,
noise,0,-1,-1,0,1,23,8,9301,2,0.02041503914746663,
signal,0,-1,-1,0,1,24,8,9301,2,0.02041503914746663,
signal,0,-1,-1,0,1,25,8,9301,2,0.02041503914746663,
noise,0,-1,-1,0,1,26,8,9301,2,0.02041503914746663,
noise,0,-1,-1,0,1,27,7,9301,2,0.02041503914746663,
noise,0,-1,-1,0,1,28,8,9301,2,0.02041503914746663,
signal,0,-1,-1,0,1,29,7,9301,2,0.02041503914746663,
signal,0,-1,-1,0,1,30,7,9301,2,0.02041503914746663,
noise,0,-1,-1,0,1,31,8,9301,2,0.02041503914746663,
signal,0,-1,-1,0,1,32,8,9301,2,0.02041503914746663,
signal,0,-1,-1,0,1,33,7,9301,2,0.02041503914746663,
signal,0,-1,-1,0,1,34,8,9301,2,0.02041503914746663,
noise,0,-1,-1,0,1,35,8,9301,2,0.02041503914746663,
noise,0,-1,-1,0,1,36,8,9301,2,0.02041503914746663,
noise,0,-1,-1,0,1,37,8,9301,2,0.02041503914746663,
noise,0,-1,-1,0,1,38,8,9301,2,0.02041503914746663,
noise,0,-1,-1,0,1,39,8,9301,2,0.02041503914746663,
noise,0,-1,-1,0,1,40,noresponse,9301,2,0.02041503914746663,
signal,0,-1,-1,0,1,41,7,9301,2,0.02041503914746663,
noise,0,-1,-1,0,1,42,8,9301,2,0.02041503914746663,
signal,0,-1,-1,0,1,43,8,9301,2,0.02041503914746663,
signal,0,-1,-1,0,1,44,7,9301,2,0.02041503914746663,
noise,0,-1,-1,0,1,45,8,9301,2,0.02041503914746663,
signal,0,-1,-1,0,1,46,7,9301,2,0.02041503914746663,
noise,0,-1,-1,0,1,47,8,9301,2,0.02041503914746663,
noise,0,-1,-1,0,1,48,8,9301,2,0.02041503914746663,
noise,0,-1,-1,0,1,49,7,9301,2,0.02041503914746663,
noise,0,-1,-1,0,1,50,8,9301,2,0.02041503914746663,
noise,0,-1,-1,0,1,51,7,9301,2,0.02041503914746663,
noise,0,-1,-1,0,1,52,8,9301,2,0.02041503914746663,
noise,0,-1,-1,0,1,53,8,9301,2,0.02041503914746663,
signal,0,-1,-1,0,1,54,8,9301,2,0.02041503914746663,
signal,0,-1,-1,0,1,55,7,9301,2,0.02041503914746663,
noise,0,-1,-1,0,1,56,8,9301,2,0.02041503914746663,
signal,0,-1,-1,0,1,57,7,9301,2,0.02041503914746663,
noise,0,-1,-1,0,1,58,8,9301,2,0.02041503914746663,
noise,0,-1,-1,0,1,59,8,9301,2,0.02041503914746663,
signal,0,-1,-1,0,1,60,7,9301,2,0.02041503914746663,
signal,0,-1,-1,0,1,61,7,9301,2,0.02041503914746663,
signal,0,-1,-1,0,1,62,8,9301,2,0.02041503914746663,
noise,0,-1,-1,0,1,63,8,9301,2,0.02041503914746663,
signal,0,-1,-1,0,1,64,8,9301,2,0.02041503914746663,
noise,0,-1,-1,0,1,65,8,9301,2,0.02041503914746663,
signal,0,-1,-1,0,1,66,7,9301,2,0.02041503914746663,
noise,0,-1,-1,0,1,67,8,9301,2,0.02041503914746663,
signal,0,-1,-1,0,1,68,7,9301,2,0.02041503914746663,
noise,0,-1,-1,0,1,69,8,9301,2,0.02041503914746663,
noise,0,-1,-1,0,1,70,8,9301,2,0.02041503914746663,
signal,0,-1,-1,0,1,71,7,9301,2,0.02041503914746663,
signal,0,-1,-1,0,1,72,7,9301,2,0.02041503914746663,
signal,0,-1,-1,0,1,73,7,9301,2,0.02041503914746663,
signal,0,-1,-1,0,1,74,7,9301,2,0.02041503914746663,
noise,0,-1,-1,0,1,75,7,9301,2,0.02041503914746663,
signal,0,-1,-1,0,1,76,7,9301,2,0.02041503914746663,
signal,0,-1,-1,0,1,77,7,9301,2,0.02041503914746663,
noise,0,-1,-1,0,1,78,8,9301,2,0.02041503914746663,
signal,0,-1,-1,0,1,79,7,9301,2,0.02041503914746663,
signal,0,-1,-1,0,2,0,8,9301,2,0.02041503914746663,
noise,0,-1,-1,0,2,1,8,9301,2,0.02041503914746663,
noise,0,-1,-1,0,2,2,8,9301,2,0.02041503914746663,
noise,0,-1,-1,0,2,3,8,9301,2,0.02041503914746663,
noise,0,-1,-1,0,2,4,8,9301,2,0.02041503914746663,
noise,0,-1,-1,0,2,5,8,9301,2,0.02041503914746663,
noise,0,-1,-1,0,2,6,8,9301,2,0.02041503914746663,
signal,0,-1,-1,0,2,7,7,9301,2,0.02041503914746663,
noise,0,-1,-1,0,2,8,8,9301,2,0.02041503914746663,
signal,0,-1,-1,0,2,9,7,9301,2,0.02041503914746663,
noise,0,-1,-1,0,2,10,8,9301,2,0.02041503914746663,
noise,0,-1,-1,0,2,11,8,9301,2,0.02041503914746663,
noise,0,-1,-1,0,2,12,noresponse,9301,2,0.02041503914746663,
noise,0,-1,-1,0,2,13,8,9301,2,0.02041503914746663,
noise,0,-1,-1,0,2,14,8,9301,2,0.02041503914746663,
signal,0,-1,-1,0,2,15,7,9301,2,0.02041503914746663,
noise,0,-1,-1,0,2,16,8,9301,2,0.02041503914746663,
noise,0,-1,-1,0,2,17,8,9301,2,0.02041503914746663,
signal,0,-1,-1,0,2,18,7,9301,2,0.02041503914746663,
signal,0,-1,-1,0,2,19,7,9301,2,0.02041503914746663,
noise,0,-1,-1,0,2,20,8,9301,2,0.02041503914746663,
noise,0,-1,-1,0,2,21,8,9301,2,0.02041503914746663,
noise,0,-1,-1,0,2,22,8,9301,2,0.02041503914746663,
signal,0,-1,-1,0,2,23,8,9301,2,0.02041503914746663,
noise,0,-1,-1,0,2,24,8,9301,2,0.02041503914746663,
signal,0,-1,-1,0,2,25,7,9301,2,0.02041503914746663,
signal,0,-1,-1,0,2,26,8,9301,2,0.02041503914746663,
noise,0,-1,-1,0,2,27,8,9301,2,0.02041503914746663,
noise,0,-1,-1,0,2,28,8,9301,2,0.02041503914746663,
signal,0,-1,-1,0,2,29,7,9301,2,0.02041503914746663,
signal,0,-1,-1,0,2,30,7,9301,2,0.02041503914746663,
noise,0,-1,-1,0,2,31,8,9301,2,0.02041503914746663,
signal,0,-1,-1,0,2,32,7,9301,2,0.02041503914746663,
signal,0,-1,-1,0,2,33,7,9301,2,0.02041503914746663,
signal,0,-1,-1,0,2,34,7,9301,2,0.02041503914746663,
noise,0,-1,-1,0,2,35,8,9301,2,0.02041503914746663,
signal,0,-1,-1,0,2,36,7,9301,2,0.02041503914746663,
noise,0,-1,-1,0,2,37,8,9301,2,0.02041503914746663,
noise,0,-1,-1,0,2,38,8,9301,2,0.02041503914746663,
noise,0,-1,-1,0,2,39,8,9301,2,0.02041503914746663,
signal,0,-1,-1,0,2,40,7,9301,2,0.02041503914746663,
signal,0,-1,-1,0,2,41,7,9301,2,0.02041503914746663,
noise,0,-1,-1,0,2,42,8,9301,2,0.02041503914746663,
signal,0,-1,-1,0,2,43,8,9301,2,0.02041503914746663,
noise,0,-1,-1,0,2,44,8,9301,2,0.02041503914746663,
noise,0,-1,-1,0,2,45,8,9301,2,0.02041503914746663,
noise,0,-1,-1,0,2,46,8,9301,2,0.02041503914746663,
signal,0,-1,-1,0,2,47,7,9301,2,0.02041503914746663,
noise,0,-1,-1,0,2,48,8,9301,2,0.02041503914746663,
signal,0,-1,-1,0,2,49,7,9301,2,0.02041503914746663,
noise,0,-1,-1,0,2,50,8,9301,2,0.02041503914746663,
signal,0,-1,-1,0,2,51,8,9301,2,0.02041503914746663,
noise,0,-1,-1,0,2,52,8,9301,2,0.02041503914746663,
signal,0,-1,-1,0,2,53,7,9301,2,0.02041503914746663,
signal,0,-1,-1,0,2,54,8,9301,2,0.02041503914746663,
signal,0,-1,-1,0,2,55,8,9301,2,0.02041503914746663,
noise,0,-1,-1,0,2,56,8,9301,2,0.02041503914746663,
signal,0,-1,-1,0,2,57,8,9301,2,0.02041503914746663,
signal,0,-1,-1,0,2,58,7,9301,2,0.02041503914746663,
signal,0,-1,-1,0,2,59,8,9301,2,0.02041503914746663,
signal,0,-1,-1,0,2,60,8,9301,2,0.02041503914746663,
signal,0,-1,-1,0,2,61,8,9301,2,0.02041503914746663,
signal,0,-1,-1,0,2,62,7,9301,2,0.02041503914746663,
noise,0,-1,-1,0,2,63,8,9301,2,0.02041503914746663,
noise,0,-1,-1,0,2,64,8,9301,2,0.02041503914746663,
signal,0,-1,-1,0,2,65,8,9301,2,0.02041503914746663,
noise,0,-1,-1,0,2,66,8,9301,2,0.02041503914746663,
noise,0,-1,-1,0,2,67,8,9301,2,0.02041503914746663,
signal,0,-1,-1,0,2,68,7,9301,2,0.02041503914746663,
signal,0,-1,-1,0,2,69,8,9301,2,0.02041503914746663,
signal,0,-1,-1,0,2,70,8,9301,2,0.02041503914746663,
noise,0,-1,-1,0,2,71,8,9301,2,0.02041503914746663,
signal,0,-1,-1,0,2,72,8,9301,2,0.02041503914746663,
noise,0,-1,-1,0,2,73,8,9301,2,0.02041503914746663,
signal,0,-1,-1,0,2,74,7,9301,2,0.02041503914746663,
signal,0,-1,-1,0,2,75,8,9301,2,0.02041503914746663,
signal,0,-1,-1,0,2,76,8,9301,2,0.02041503914746663,
signal,0,-1,-1,0,2,77,7,9301,2,0.02041503914746663,
signal,0,-1,-1,0,2,78,7,9301,2,0.02041503914746663,
noise,0,-1,-1,0,2,79,8,9301,2,0.02041503914746663,
signal,0,-1,-1,0,3,0,8,9301,2,0.02041503914746663,
signal,0,-1,-1,0,3,1,7,9301,2,0.02041503914746663,
signal,0,-1,-1,0,3,2,8,9301,2,0.02041503914746663,
signal,0,-1,-1,0,3,3,7,9301,2,0.02041503914746663,
noise,0,-1,-1,0,3,4,7,9301,2,0.02041503914746663,
noise,0,-1,-1,0,3,5,8,9301,2,0.02041503914746663,
signal,0,-1,-1,0,3,6,7,9301,2,0.02041503914746663,
noise,0,-1,-1,0,3,7,8,9301,2,0.02041503914746663,
signal,0,-1,-1,0,3,8,7,9301,2,0.02041503914746663,
signal,0,-1,-1,0,3,9,7,9301,2,0.02041503914746663,
noise,0,-1,-1,0,3,10,8,9301,2,0.02041503914746663,
signal,0,-1,-1,0,3,11,7,9301,2,0.02041503914746663,
noise,0,-1,-1,0,3,12,8,9301,2,0.02041503914746663,
noise,0,-1,-1,0,3,13,8,9301,2,0.02041503914746663,
signal,0,-1,-1,0,3,14,7,9301,2,0.02041503914746663,
signal,0,-1,-1,0,3,15,7,9301,2,0.02041503914746663,
noise,0,-1,-1,0,3,16,8,9301,2,0.02041503914746663,
noise,0,-1,-1,0,3,17,7,9301,2,0.02041503914746663,
signal,0,-1,-1,0,3,18,8,9301,2,0.02041503914746663,
noise,0,-1,-1,0,3,19,8,9301,2,0.02041503914746663,
noise,0,-1,-1,0,3,20,7,9301,2,0.02041503914746663,
noise,0,-1,-1,0,3,21,8,9301,2,0.02041503914746663,
noise,0,-1,-1,0,3,22,8,9301,2,0.02041503914746663,
signal,0,-1,-1,0,3,23,8,9301,2,0.02041503914746663,
noise,0,-1,-1,0,3,24,8,9301,2,0.02041503914746663,
signal,0,-1,-1,0,3,25,7,9301,2,0.02041503914746663,
noise,0,-1,-1,0,3,26,8,9301,2,0.02041503914746663,
noise,0,-1,-1,0,3,27,8,9301,2,0.02041503914746663,
noise,0,-1,-1,0,3,28,8,9301,2,0.02041503914746663,
signal,0,-1,-1,0,3,29,7,9301,2,0.02041503914746663,
signal,0,-1,-1,0,3,30,7,9301,2,0.02041503914746663,
signal,0,-1,-1,0,3,31,7,9301,2,0.02041503914746663,
signal,0,-1,-1,0,3,32,7,9301,2,0.02041503914746663,
noise,0,-1,-1,0,3,33,8,9301,2,0.02041503914746663,
noise,0,-1,-1,0,3,34,8,9301,2,0.02041503914746663,
signal,0,-1,-1,0,3,35,7,9301,2,0.02041503914746663,
noise,0,-1,-1,0,3,36,8,9301,2,0.02041503914746663,
signal,0,-1,-1,0,3,37,7,9301,2,0.02041503914746663,
signal,0,-1,-1,0,3,38,7,9301,2,0.02041503914746663,
signal,0,-1,-1,0,3,39,7,9301,2,0.02041503914746663,
noise,0,-1,-1,0,3,40,8,9301,2,0.02041503914746663,
signal,0,-1,-1,0,3,41,8,9301,2,0.02041503914746663,
signal,0,-1,-1,0,3,42,7,9301,2,0.02041503914746663,
signal,0,-1,-1,0,3,43,8,9301,2,0.02041503914746663,
noise,0,-1,-1,0,3,44,8,9301,2,0.02041503914746663,
signal,0,-1,-1,0,3,45,7,9301,2,0.02041503914746663,
signal,0,-1,-1,0,3,46,7,9301,2,0.02041503914746663,
noise,0,-1,-1,0,3,47,8,9301,2,0.02041503914746663,
signal,0,-1,-1,0,3,48,7,9301,2,0.02041503914746663,
signal,0,-1,-1,0,3,49,8,9301,2,0.02041503914746663,
signal,0,-1,-1,0,3,50,7,9301,2,0.02041503914746663,
noise,0,-1,-1,0,3,51,8,9301,2,0.02041503914746663,
noise,0,-1,-1,0,3,52,8,9301,2,0.02041503914746663,
signal,0,-1,-1,0,3,53,7,9301,2,0.02041503914746663,
noise,0,-1,-1,0,3,54,8,9301,2,0.02041503914746663,
noise,0,-1,-1,0,3,55,8,9301,2,0.02041503914746663,
noise,0,-1,-1,0,3,56,8,9301,2,0.02041503914746663,
noise,0,-1,-1,0,3,57,7,9301,2,0.02041503914746663,
noise,0,-1,-1,0,3,58,8,9301,2,0.02041503914746663,
noise,0,-1,-1,0,3,59,8,9301,2,0.02041503914746663,
signal,0,-1,-1,0,3,60,7,9301,2,0.02041503914746663,
signal,0,-1,-1,0,3,61,8,9301,2,0.02041503914746663,
signal,0,-1,-1,0,3,62,7,9301,2,0.02041503914746663,
noise,0,-1,-1,0,3,63,8,9301,2,0.02041503914746663,
noise,0,-1,-1,0,3,64,8,9301,2,0.02041503914746663,
noise,0,-1,-1,0,3,65,8,9301,2,0.02041503914746663,
noise,0,-1,-1,0,3,66,8,9301,2,0.02041503914746663,
noise,0,-1,-1,0,3,67,8,9301,2,0.02041503914746663,
noise,0,-1,-1,0,3,68,8,9301,2,0.02041503914746663,
signal,0,-1,-1,0,3,69,8,9301,2,0.02041503914746663,
signal,0,-1,-1,0,3,70,7,9301,2,0.02041503914746663,
signal,0,-1,-1,0,3,71,7,9301,2,0.02041503914746663,
noise,0,-1,-1,0,3,72,8,9301,2,0.02041503914746663,
signal,0,-1,-1,0,3,73,8,9301,2,0.02041503914746663,
noise,0,-1,-1,0,3,74,7,9301,2,0.02041503914746663,
signal,0,-1,-1,0,3,75,7,9301,2,0.02041503914746663,
noise,0,-1,-1,0,3,76,8,9301,2,0.02041503914746663,
signal,0,-1,-1,0,3,77,7,9301,2,0.02041503914746663,
signal,0,-1,-1,0,3,78,7,9301,2,0.02041503914746663,
noise,0,-1,-1,0,3,79,8,9301,2,0.02041503914746663,
signal,0,0,0,12,4,0,8,9301,2,0.02041503914746663,
signal,0,1,1,14,4,1,7,9301,2,0.02041503914746663,
signal,0,2,2,20,4,2,8,9301,2,0.02041503914746663,
signal,0,3,3,2,4,3,7,9301,2,0.02041503914746663,
signal,0,4,4,40,4,4,7,9301,2,0.02041503914746663,
noise,0,5,5,45,4,5,8,9301,2,0.02041503914746663,
noise,0,6,6,27,4,6,8,9301,2,0.02041503914746663,
signal,0,7,7,8,4,7,7,9301,2,0.02041503914746663,
noise,0,8,8,71,4,8,8,9301,2,0.02041503914746663,
signal,0,9,9,76,4,9,7,9301,2,0.02041503914746663,
noise,0,10,10,55,4,10,8,9301,2,0.02041503914746663,
noise,0,11,11,43,4,11,8,9301,2,0.02041503914746663,
signal,0,12,12,0,4,12,7,9301,2,0.02041503914746663,
noise,0,13,13,37,4,13,8,9301,2,0.02041503914746663,
signal,0,14,14,56,4,14,7,9301,2,0.02041503914746663,
noise,0,15,15,19,4,15,8,9301,2,0.02041503914746663,
noise,0,16,16,57,4,16,8,9301,2,0.02041503914746663,
noise,0,17,17,53,4,17,8,9301,2,0.02041503914746663,
noise,0,18,18,69,4,18,8,9301,2,0.02041503914746663,
signal,0,19,19,46,4,19,7,9301,2,0.02041503914746663,
noise,0,20,20,33,4,20,8,9301,2,0.02041503914746663,
noise,0,21,21,25,4,21,8,9301,2,0.02041503914746663,
noise,0,22,22,23,4,22,8,9301,2,0.02041503914746663,
noise,0,23,23,67,4,23,8,9301,2,0.02041503914746663,
signal,0,24,24,54,4,24,7,9301,2,0.02041503914746663,
noise,0,25,25,51,4,25,8,9301,2,0.02041503914746663,
signal,0,26,26,70,4,26,7,9301,2,0.02041503914746663,
noise,0,27,27,35,4,27,8,9301,2,0.02041503914746663,
noise,0,28,28,1,4,28,8,9301,2,0.02041503914746663,
noise,0,29,29,61,4,29,noresponse,9301,2,0.02041503914746663,
signal,0,30,30,74,4,30,7,9301,2,0.02041503914746663,
signal,0,31,31,16,4,31,8,9301,2,0.02041503914746663,
signal,0,32,32,42,4,32,7,9301,2,0.02041503914746663,
signal,0,33,33,26,4,33,7,9301,2,0.02041503914746663,
signal,0,34,34,58,4,34,7,9301,2,0.02041503914746663,
noise,0,35,35,11,4,35,8,9301,2,0.02041503914746663,
signal,0,36,36,38,4,36,7,9301,2,0.02041503914746663,
noise,0,37,37,3,4,37,8,9301,2,0.02041503914746663,
signal,0,38,38,52,4,38,7,9301,2,0.02041503914746663,
noise,0,39,39,73,4,39,7,9301,2,0.02041503914746663,
signal,0,40,40,36,4,40,7,9301,2,0.02041503914746663,
noise,0,41,41,65,4,41,8,9301,2,0.02041503914746663,
noise,0,42,42,75,4,42,8,9301,2,0.02041503914746663,
noise,0,43,43,21,4,43,8,9301,2,0.02041503914746663,
noise,0,44,44,5,4,44,7,9301,2,0.02041503914746663,
noise,0,45,45,31,4,45,8,9301,2,0.02041503914746663,
noise,0,46,46,77,4,46,8,9301,2,0.02041503914746663,
signal,0,47,47,68,4,47,7,9301,2,0.02041503914746663,
signal,0,48,48,48,4,48,7,9301,2,0.02041503914746663,
signal,0,49,49,34,4,49,7,9301,2,0.02041503914746663,
signal,0,50,50,66,4,50,8,9301,2,0.02041503914746663,
signal,0,51,51,4,4,51,7,9301,2,0.02041503914746663,
noise,0,52,52,17,4,52,7,9301,2,0.02041503914746663,
noise,0,53,53,79,4,53,8,9301,2,0.02041503914746663,
noise,0,54,54,7,4,54,8,9301,2,0.02041503914746663,
noise,0,55,55,49,4,55,8,9301,2,0.02041503914746663,
signal,0,56,56,28,4,56,7,9301,2,0.02041503914746663,
signal,0,57,57,30,4,57,7,9301,2,0.02041503914746663,
signal,0,58,58,32,4,58,8,9301,2,0.02041503914746663,
noise,0,59,59,9,4,59,7,9301,2,0.02041503914746663,
signal,0,60,60,24,4,60,7,9301,2,0.02041503914746663,
signal,0,61,61,6,4,61,8,9301,2,0.02041503914746663,
noise,0,62,62,15,4,62,8,9301,2,0.02041503914746663,
signal,0,63,63,64,4,63,7,9301,2,0.02041503914746663,
signal,0,64,64,50,4,64,7,9301,2,0.02041503914746663,
noise,0,65,65,63,4,65,8,9301,2,0.02041503914746663,
signal,0,66,66,78,4,66,8,9301,2,0.02041503914746663,
signal,0,67,67,62,4,67,7,9301,2,0.02041503914746663,
noise,0,68,68,41,4,68,8,9301,2,0.02041503914746663,
noise,0,69,69,29,4,69,8,9301,2,0.02041503914746663,
noise,0,70,70,13,4,70,8,9301,2,0.02041503914746663,
signal,0,71,71,72,4,71,8,9301,2,0.02041503914746663,
noise,0,72,72,47,4,72,8,9301,2,0.02041503914746663,
noise,0,73,73,39,4,73,8,9301,2,0.02041503914746663,
signal,0,74,74,10,4,74,8,9301,2,0.02041503914746663,
signal,0,75,75,22,4,75,7,9301,2,0.02041503914746663,
signal,0,76,76,18,4,76,7,9301,2,0.02041503914746663,
signal,0,77,77,60,4,77,7,9301,2,0.02041503914746663,
signal,0,78,78,44,4,78,8,9301,2,0.02041503914746663,
noise,0,79,79,59,4,79,8,9301,2,0.02041503914746663,
