condition,.thisRepN,.thisTrialN,.thisN,.thisIndex,block,trial,s1_state,response,rt,pair,
signal,0,-1,-1,0,1,0,False,yes,1.180053949356079,81,
noise,0,-1,-1,0,1,1,False,no,0.7981858253479004,81,
noise,0,-1,-1,0,1,2,False,no,0.9138619899749756,81,
signal,0,-1,-1,0,1,3,True,yes,1.2263591289520264,81,
signal,0,-1,-1,0,1,4,False,yes,0.7818770408630371,81,
noise,0,-1,-1,0,1,5,False,yes,1.4377548694610596,81,
signal,0,-1,-1,0,1,6,True,yes,1.1863071918487549,81,
signal,0,-1,-1,0,1,7,True,yes,0.8439619541168213,81,
noise,0,-1,-1,0,1,8,True,no,1.5960049629211426,81,
noise,0,-1,-1,0,1,9,False,no,1.1281139850616455,81,
signal,0,-1,-1,0,1,10,False,yes,0.7602510452270508,81,
noise,0,-1,-1,0,1,11,True,no,0.8758800029754639,81,
noise,0,-1,-1,0,1,12,True,no,1.1559970378875732,81,
noise,0,-1,-1,0,1,13,False,no,1.1470561027526855,81,
noise,0,-1,-1,0,1,14,True,no,1.6906721591949463,81,
noise,0,-1,-1,0,1,15,True,no,0.6203999519348145,81,
noise,0,-1,-1,0,1,16,False,no,0.9604439735412598,81,
noise,0,-1,-1,0,1,17,True,no,0.8415298461914062,81,
noise,0,-1,-1,0,1,18,False,no,0.7910590171813965,81,
signal,0,-1,-1,0,1,19,True,yes,0.7608718872070312,81,
signal,0,-1,-1,0,1,20,True,yes,0.9182569980621338,81,
noise,0,-1,-1,0,1,21,False,no,1.3882410526275635,81,
noise,0,-1,-1,0,1,22,False,no,0.9571888446807861,81,
signal,0,-1,-1,0,1,23,False,yes,0.8441941738128662,81,
signal,0,-1,-1,0,1,24,False,yes,0.6498050689697266,81,
signal,0,-1,-1,0,1,25,False,yes,0.6813440322875977,81,
noise,0,-1,-1,0,1,26,True,noresponse,None,81,
noise,0,-1,-1,0,1,27,False,no,1.0673279762268066,81,
signal,0,-1,-1,0,1,28,True,yes,1.165910005569458,81,
signal,0,-1,-1,0,1,29,False,yes,0.8776741027832031,81,
noise,0,-1,-1,0,1,30,False,no,0.7877650260925293,81,
noise,0,-1,-1,0,1,31,False,no,1.237083911895752,81,
noise,0,-1,-1,0,1,32,True,no,0.8694708347320557,81,
signal,0,-1,-1,0,1,33,True,yes,0.9561171531677246,81,
signal,0,-1,-1,0,1,34,False,yes,1.1432089805603027,81,
signal,0,-1,-1,0,1,35,True,yes,0.9620399475097656,81,
signal,0,-1,-1,0,1,36,False,yes,0.7200348377227783,81,
noise,0,-1,-1,0,1,37,True,no,1.2628052234649658,81,
noise,0,-1,-1,0,1,38,False,no,0.5429840087890625,81,
noise,0,-1,-1,0,1,39,False,yes,0.961338996887207,81,
signal,0,-1,-1,0,1,40,True,yes,1.4219038486480713,81,
signal,0,-1,-1,0,1,41,False,yes,0.8603799343109131,81,
noise,0,-1,-1,0,1,42,True,no,1.1048200130462646,81,
signal,0,-1,-1,0,1,43,False,yes,0.7643451690673828,81,
signal,0,-1,-1,0,1,44,True,noresponse,None,81,
noise,0,-1,-1,0,1,45,False,no,0.7650430202484131,81,
signal,0,-1,-1,0,1,46,True,yes,1.0893230438232422,81,
noise,0,-1,-1,0,1,47,True,no,1.476658821105957,81,
noise,0,-1,-1,0,1,48,True,no,1.060586929321289,81,
signal,0,-1,-1,0,1,49,False,yes,1.314391851425171,81,
noise,0,-1,-1,0,1,50,False,no,0.7441239356994629,81,
noise,0,-1,-1,0,1,51,False,no,0.8812050819396973,81,
signal,0,-1,-1,0,1,52,False,yes,0.7578468322753906,81,
signal,0,-1,-1,0,1,53,True,yes,0.9117980003356934,81,
signal,0,-1,-1,0,1,54,False,yes,1.0591390132904053,81,
noise,0,-1,-1,0,1,55,True,no,1.2040481567382812,81,
signal,0,-1,-1,0,1,56,True,yes,1.3251380920410156,81,
signal,0,-1,-1,0,1,57,False,no,1.5666890144348145,81,
signal,0,-1,-1,0,1,58,False,yes,0.8675599098205566,81,
noise,0,-1,-1,0,1,59,True,no,0.8619570732116699,81,
signal,0,-1,-1,0,1,60,True,yes,1.0046138763427734,81,
signal,0,-1,-1,0,1,61,False,no,1.2420971393585205,81,
signal,0,-1,-1,0,1,62,False,yes,1.033592939376831,81,
signal,0,-1,-1,0,1,63,False,yes,1.3258681297302246,81,
signal,0,-1,-1,0,1,64,False,yes,0.8117070198059082,81,
noise,0,-1,-1,0,1,65,False,no,1.0690040588378906,81,
noise,0,-1,-1,0,1,66,False,no,0.8282389640808105,81,
noise,0,-1,-1,0,1,67,False,no,1.1306419372558594,81,
signal,0,-1,-1,0,1,68,True,yes,1.2846910953521729,81,
signal,0,-1,-1,0,1,69,False,yes,0.7196788787841797,81,
noise,0,-1,-1,0,1,70,True,no,0.8252439498901367,81,
signal,0,-1,-1,0,1,71,False,yes,1.7929670810699463,81,
noise,0,-1,-1,0,1,72,True,no,0.6339371204376221,81,
signal,0,-1,-1,0,1,73,True,yes,0.7696108818054199,81,
noise,0,-1,-1,0,1,74,True,no,0.7751200199127197,81,
signal,0,-1,-1,0,1,75,True,noresponse,None,81,
noise,0,-1,-1,0,1,76,True,no,2.2133989334106445,81,
noise,0,-1,-1,0,1,77,True,no,0.7569661140441895,81,
signal,0,-1,-1,0,1,78,False,yes,1.463165044784546,81,
noise,0,-1,-1,0,1,79,True,no,1.4393630027770996,81,
noise,0,-1,-1,0,2,0,False,no,1.7197749614715576,81,
noise,0,-1,-1,0,2,1,True,no,1.102518081665039,81,
signal,0,-1,-1,0,2,2,True,yes,1.1766338348388672,81,
noise,0,-1,-1,0,2,3,False,no,1.6609230041503906,81,
noise,0,-1,-1,0,2,4,False,no,0.6323699951171875,81,
signal,0,-1,-1,0,2,5,False,yes,1.3201658725738525,81,
signal,0,-1,-1,0,2,6,False,yes,0.9535818099975586,81,
signal,0,-1,-1,0,2,7,True,yes,0.9508669376373291,81,
signal,0,-1,-1,0,2,8,True,yes,2.215363025665283,81,
signal,0,-1,-1,0,2,9,True,yes,1.8616588115692139,81,
noise,0,-1,-1,0,2,10,False,no,0.551598072052002,81,
signal,0,-1,-1,0,2,11,False,no,1.1652040481567383,81,
noise,0,-1,-1,0,2,12,False,no,1.1437318325042725,81,
signal,0,-1,-1,0,2,13,True,yes,1.0279738903045654,81,
noise,0,-1,-1,0,2,14,False,noresponse,None,81,
signal,0,-1,-1,0,2,15,True,yes,1.391071081161499,81,
noise,0,-1,-1,0,2,16,True,no,1.3621110916137695,81,
signal,0,-1,-1,0,2,17,False,yes,0.7954578399658203,81,
noise,0,-1,-1,0,2,18,False,no,1.465376853942871,81,
noise,0,-1,-1,0,2,19,False,no,1.2239940166473389,81,
signal,0,-1,-1,0,2,20,False,yes,1.4988539218902588,81,
signal,0,-1,-1,0,2,21,True,yes,0.9014790058135986,81,
noise,0,-1,-1,0,2,22,True,no,0.9365999698638916,81,
signal,0,-1,-1,0,2,23,False,yes,0.9822359085083008,81,
signal,0,-1,-1,0,2,24,True,yes,0.7821080684661865,81,
signal,0,-1,-1,0,2,25,False,yes,0.9478049278259277,81,
signal,0,-1,-1,0,2,26,True,yes,1.2506659030914307,81,
signal,0,-1,-1,0,2,27,False,yes,0.9519529342651367,81,
signal,0,-1,-1,0,2,28,False,yes,0.9241540431976318,81,
noise,0,-1,-1,0,2,29,True,no,1.0327720642089844,81,
signal,0,-1,-1,0,2,30,False,yes,0.6998910903930664,81,
noise,0,-1,-1,0,2,31,True,no,1.136768102645874,81,
noise,0,-1,-1,0,2,32,True,no,1.2058329582214355,81,
signal,0,-1,-1,0,2,33,True,yes,1.1588490009307861,81,
noise,0,-1,-1,0,2,34,False,no,1.4707331657409668,81,
noise,0,-1,-1,0,2,35,False,no,2.300924062728882,81,
signal,0,-1,-1,0,2,36,False,yes,1.279344081878662,81,
noise,0,-1,-1,0,2,37,False,no,1.805743932723999,81,
signal,0,-1,-1,0,2,38,True,yes,1.3161029815673828,81,
signal,0,-1,-1,0,2,39,True,yes,1.352193832397461,81,
signal,0,-1,-1,0,2,40,True,yes,0.9829959869384766,81,
noise,0,-1,-1,0,2,41,True,no,0.8455719947814941,81,
noise,0,-1,-1,0,2,42,False,no,0.9027659893035889,81,
signal,0,-1,-1,0,2,43,False,yes,1.275325059890747,81,
noise,0,-1,-1,0,2,44,False,yes,1.1893420219421387,81,
noise,0,-1,-1,0,2,45,True,no,0.9058539867401123,81,
noise,0,-1,-1,0,2,46,False,no,1.3704278469085693,81,
noise,0,-1,-1,0,2,47,True,no,0.7237870693206787,81,
signal,0,-1,-1,0,2,48,False,yes,0.9124689102172852,81,
noise,0,-1,-1,0,2,49,False,no,1.5651960372924805,81,
signal,0,-1,-1,0,2,50,False,yes,0.9495711326599121,81,
noise,0,-1,-1,0,2,51,True,no,1.0034921169281006,81,
signal,0,-1,-1,0,2,52,False,yes,1.0109891891479492,81,
noise,0,-1,-1,0,2,53,False,no,1.7140438556671143,81,
signal,0,-1,-1,0,2,54,False,yes,1.8530850410461426,81,
signal,0,-1,-1,0,2,55,False,no,0.6823978424072266,81,
signal,0,-1,-1,0,2,56,True,no,1.060149908065796,81,
noise,0,-1,-1,0,2,57,False,no,1.2963130474090576,81,
signal,0,-1,-1,0,2,58,False,yes,0.8842239379882812,81,
noise,0,-1,-1,0,2,59,False,no,1.9742121696472168,81,
noise,0,-1,-1,0,2,60,True,no,0.8184881210327148,81,
signal,0,-1,-1,0,2,61,True,yes,1.1114099025726318,81,
signal,0,-1,-1,0,2,62,True,yes,1.016144037246704,81,
noise,0,-1,-1,0,2,63,True,no,1.1949830055236816,81,
noise,0,-1,-1,0,2,64,True,no,0.9321920871734619,81,
noise,0,-1,-1,0,2,65,False,no,0.813060998916626,81,
signal,0,-1,-1,0,2,66,True,yes,1.3358449935913086,81,
signal,0,-1,-1,0,2,67,True,yes,0.9090609550476074,81,
signal,0,-1,-1,0,2,68,False,no,0.9572529792785645,81,
noise,0,-1,-1,0,2,69,True,no,0.8482129573822021,81,
noise,0,-1,-1,0,2,70,True,no,1.1263489723205566,81,
noise,0,-1,-1,0,2,71,True,no,0.5743720531463623,81,
noise,0,-1,-1,0,2,72,False,no,0.8541049957275391,81,
noise,0,-1,-1,0,2,73,True,no,1.5221920013427734,81,
signal,0,-1,-1,0,2,74,True,noresponse,None,81,
noise,0,-1,-1,0,2,75,False,no,0.8421390056610107,81,
signal,0,-1,-1,0,2,76,False,yes,0.8781499862670898,81,
noise,0,-1,-1,0,2,77,True,no,1.0136759281158447,81,
noise,0,-1,-1,0,2,78,False,no,1.809473991394043,81,
signal,0,-1,-1,0,2,79,False,yes,0.8085038661956787,81,
noise,0,-1,-1,0,3,0,True,no,0.8095619678497314,81,
signal,0,-1,-1,0,3,1,False,yes,0.9025650024414062,81,
noise,0,-1,-1,0,3,2,False,no,0.718878984451294,81,
noise,0,-1,-1,0,3,3,True,no,0.626859188079834,81,
signal,0,-1,-1,0,3,4,False,yes,1.0064949989318848,81,
signal,0,-1,-1,0,3,5,True,yes,1.744987964630127,81,
signal,0,-1,-1,0,3,6,True,yes,1.0522401332855225,81,
signal,0,-1,-1,0,3,7,True,yes,0.815338134765625,81,
signal,0,-1,-1,0,3,8,False,yes,0.8315930366516113,81,
signal,0,-1,-1,0,3,9,True,yes,0.6932170391082764,81,
signal,0,-1,-1,0,3,10,False,no,1.0185270309448242,81,
noise,0,-1,-1,0,3,11,False,noresponse,None,81,
signal,0,-1,-1,0,3,12,False,yes,1.0700480937957764,81,
noise,0,-1,-1,0,3,13,True,no,0.7654252052307129,81,
signal,0,-1,-1,0,3,14,False,yes,0.9793097972869873,81,
signal,0,-1,-1,0,3,15,True,noresponse,None,81,
noise,0,-1,-1,0,3,16,True,no,0.7671549320220947,81,
noise,0,-1,-1,0,3,17,True,no,0.5771009922027588,81,
noise,0,-1,-1,0,3,18,True,no,0.6131930351257324,81,
signal,0,-1,-1,0,3,19,False,yes,1.528925895690918,81,
noise,0,-1,-1,0,3,20,True,no,0.7851951122283936,81,
noise,0,-1,-1,0,3,21,True,no,0.7250208854675293,81,
noise,0,-1,-1,0,3,22,False,no,0.4762308597564697,81,
noise,0,-1,-1,0,3,23,True,no,0.4933149814605713,81,
noise,0,-1,-1,0,3,24,False,no,0.8561921119689941,81,
signal,0,-1,-1,0,3,25,True,yes,0.884678840637207,81,
signal,0,-1,-1,0,3,26,True,yes,0.9296109676361084,81,
noise,0,-1,-1,0,3,27,True,no,0.7696471214294434,81,
signal,0,-1,-1,0,3,28,True,yes,0.807387113571167,81,
noise,0,-1,-1,0,3,29,False,no,1.0406780242919922,81,
noise,0,-1,-1,0,3,30,True,no,0.7171690464019775,81,
signal,0,-1,-1,0,3,31,False,yes,0.9482879638671875,81,
signal,0,-1,-1,0,3,32,True,yes,0.85955810546875,81,
noise,0,-1,-1,0,3,33,False,no,0.7342491149902344,81,
noise,0,-1,-1,0,3,34,True,no,0.785999059677124,81,
noise,0,-1,-1,0,3,35,True,no,0.6703240871429443,81,
noise,0,-1,-1,0,3,36,False,no,0.8876111507415771,81,
noise,0,-1,-1,0,3,37,False,no,0.8491921424865723,81,
signal,0,-1,-1,0,3,38,True,yes,1.3937711715698242,81,
signal,0,-1,-1,0,3,39,False,yes,0.761544942855835,81,
noise,0,-1,-1,0,3,40,True,no,0.939079999923706,81,
signal,0,-1,-1,0,3,41,True,yes,0.7699129581451416,81,
signal,0,-1,-1,0,3,42,True,yes,1.6041738986968994,81,
signal,0,-1,-1,0,3,43,True,yes,0.6779880523681641,81,
noise,0,-1,-1,0,3,44,True,no,0.6704049110412598,81,
signal,0,-1,-1,0,3,45,False,yes,1.5974302291870117,81,
signal,0,-1,-1,0,3,46,False,yes,0.8563189506530762,81,
noise,0,-1,-1,0,3,47,True,no,0.8267879486083984,81,
noise,0,-1,-1,0,3,48,False,no,1.3236207962036133,81,
signal,0,-1,-1,0,3,49,False,yes,1.044909954071045,81,
signal,0,-1,-1,0,3,50,True,noresponse,None,81,
signal,0,-1,-1,0,3,51,True,yes,0.7979409694671631,81,
noise,0,-1,-1,0,3,52,False,no,1.037179946899414,81,
signal,0,-1,-1,0,3,53,False,yes,2.0596261024475098,81,
noise,0,-1,-1,0,3,54,False,no,0.7535190582275391,81,
signal,0,-1,-1,0,3,55,False,no,0.9894461631774902,81,
noise,0,-1,-1,0,3,56,True,no,1.8231868743896484,81,
signal,0,-1,-1,0,3,57,True,yes,1.181062936782837,81,
signal,0,-1,-1,0,3,58,True,yes,1.0274040699005127,81,
signal,0,-1,-1,0,3,59,False,yes,0.9298369884490967,81,
signal,0,-1,-1,0,3,60,False,yes,0.7903668880462646,81,
noise,0,-1,-1,0,3,61,False,no,0.9019138813018799,81,
signal,0,-1,-1,0,3,62,False,yes,0.8368198871612549,81,
signal,0,-1,-1,0,3,63,True,yes,1.1425938606262207,81,
noise,0,-1,-1,0,3,64,True,no,0.736778974533081,81,
noise,0,-1,-1,0,3,65,False,no,0.6559808254241943,81,
signal,0,-1,-1,0,3,66,True,noresponse,None,81,
signal,0,-1,-1,0,3,67,False,yes,1.208631992340088,81,
noise,0,-1,-1,0,3,68,False,no,1.8070721626281738,81,
signal,0,-1,-1,0,3,69,True,yes,0.8725438117980957,81,
noise,0,-1,-1,0,3,70,True,no,0.7489371299743652,81,
noise,0,-1,-1,0,3,71,True,no,0.7183270454406738,81,
noise,0,-1,-1,0,3,72,True,no,1.634464979171753,81,
noise,0,-1,-1,0,3,73,False,no,0.6142549514770508,81,
noise,0,-1,-1,0,3,74,False,no,0.7667391300201416,81,
noise,0,-1,-1,0,3,75,True,no,0.6075479984283447,81,
signal,0,-1,-1,0,3,76,False,no,0.7445569038391113,81,
noise,0,-1,-1,0,3,77,True,no,0.9011590480804443,81,
signal,0,-1,-1,0,3,78,False,yes,1.158066987991333,81,
noise,0,-1,-1,0,3,79,False,no,0.6538159847259521,81,
noise,0,-1,-1,0,4,0,True,no,0.9873771667480469,81,
noise,0,-1,-1,0,4,1,True,no,0.6586840152740479,81,
noise,0,-1,-1,0,4,2,True,no,0.5596680641174316,81,
signal,0,-1,-1,0,4,3,True,noresponse,None,81,
noise,0,-1,-1,0,4,4,True,no,0.5936050415039062,81,
signal,0,-1,-1,0,4,5,True,yes,1.185288906097412,81,
signal,0,-1,-1,0,4,6,True,yes,1.4922511577606201,81,
noise,0,-1,-1,0,4,7,True,no,0.9130401611328125,81,
signal,0,-1,-1,0,4,8,True,yes,1.3710620403289795,81,
noise,0,-1,-1,0,4,9,True,no,0.7566111087799072,81,
signal,0,-1,-1,0,4,10,True,no,1.5337951183319092,81,
noise,0,-1,-1,0,4,11,False,no,1.01236891746521,81,
signal,0,-1,-1,0,4,12,True,yes,0.8247430324554443,81,
noise,0,-1,-1,0,4,13,True,no,0.8592309951782227,81,
signal,0,-1,-1,0,4,14,True,yes,0.8687379360198975,81,
noise,0,-1,-1,0,4,15,True,no,0.7244210243225098,81,
noise,0,-1,-1,0,4,16,True,no,0.6683077812194824,81,
signal,0,-1,-1,0,4,17,True,yes,0.6855120658874512,81,
signal,0,-1,-1,0,4,18,False,yes,0.9330918788909912,81,
noise,0,-1,-1,0,4,19,True,no,0.6444399356842041,81,
noise,0,-1,-1,0,4,20,False,no,0.8353619575500488,81,
signal,0,-1,-1,0,4,21,False,yes,1.7977001667022705,81,
signal,0,-1,-1,0,4,22,True,yes,0.851032018661499,81,
signal,0,-1,-1,0,4,23,False,no,0.9316120147705078,81,
signal,0,-1,-1,0,4,24,False,no,0.9571120738983154,81,
noise,0,-1,-1,0,4,25,False,no,1.2817158699035645,81,
noise,0,-1,-1,0,4,26,True,no,0.6767358779907227,81,
noise,0,-1,-1,0,4,27,True,no,0.574786901473999,81,
noise,0,-1,-1,0,4,28,True,no,0.522831916809082,81,
signal,0,-1,-1,0,4,29,True,yes,0.8204669952392578,81,
signal,0,-1,-1,0,4,30,False,no,1.1120519638061523,81,
signal,0,-1,-1,0,4,31,True,yes,1.5457301139831543,81,
signal,0,-1,-1,0,4,32,True,yes,0.9068050384521484,81,
noise,0,-1,-1,0,4,33,True,noresponse,None,81,
noise,0,-1,-1,0,4,34,True,no,0.7553179264068604,81,
signal,0,-1,-1,0,4,35,True,yes,0.9420061111450195,81,
noise,0,-1,-1,0,4,36,False,no,0.8872559070587158,81,
noise,0,-1,-1,0,4,37,False,no,0.8320250511169434,81,
signal,0,-1,-1,0,4,38,False,yes,0.9693560600280762,81,
signal,0,-1,-1,0,4,39,False,yes,0.976686954498291,81,
noise,0,-1,-1,0,4,40,False,no,0.9963340759277344,81,
noise,0,-1,-1,0,4,41,False,no,0.8298580646514893,81,
noise,0,-1,-1,0,4,42,True,no,0.7322280406951904,81,
signal,0,-1,-1,0,4,43,True,yes,0.923468828201294,81,
signal,0,-1,-1,0,4,44,True,yes,0.7661972045898438,81,
noise,0,-1,-1,0,4,45,False,no,0.6704277992248535,81,
signal,0,-1,-1,0,4,46,True,no,1.2753708362579346,81,
signal,0,-1,-1,0,4,47,False,yes,1.6727268695831299,81,
noise,0,-1,-1,0,4,48,True,no,1.3142180442810059,81,
signal,0,-1,-1,0,4,49,False,no,0.5678350925445557,81,
noise,0,-1,-1,0,4,50,False,no,1.1534230709075928,81,
noise,0,-1,-1,0,4,51,False,no,0.6223349571228027,81,
noise,0,-1,-1,0,4,52,False,yes,1.3965749740600586,81,
noise,0,-1,-1,0,4,53,True,no,0.7191729545593262,81,
signal,0,-1,-1,0,4,54,True,yes,0.9254641532897949,81,
signal,0,-1,-1,0,4,55,False,no,0.9009709358215332,81,
signal,0,-1,-1,0,4,56,True,yes,1.3823981285095215,81,
signal,0,-1,-1,0,4,57,True,yes,0.781076192855835,81,
signal,0,-1,-1,0,4,58,True,yes,1.0024311542510986,81,
signal,0,-1,-1,0,4,59,True,yes,0.7929279804229736,81,
noise,0,-1,-1,0,4,60,True,no,1.2253608703613281,81,
signal,0,-1,-1,0,4,61,True,yes,0.7447221279144287,81,
noise,0,-1,-1,0,4,62,True,no,0.9657931327819824,81,
signal,0,-1,-1,0,4,63,True,yes,0.8781120777130127,81,
signal,0,-1,-1,0,4,64,True,yes,1.018218994140625,81,
noise,0,-1,-1,0,4,65,False,no,1.1996819972991943,81,
noise,0,-1,-1,0,4,66,False,no,0.8175129890441895,81,
signal,0,-1,-1,0,4,67,True,yes,1.1741979122161865,81,
noise,0,-1,-1,0,4,68,True,no,1.911417007446289,81,
signal,0,-1,-1,0,4,69,False,no,0.8858919143676758,81,
noise,0,-1,-1,0,4,70,False,no,0.9395270347595215,81,
noise,0,-1,-1,0,4,71,False,no,0.9658000469207764,81,
signal,0,-1,-1,0,4,72,True,yes,1.0776278972625732,81,
noise,0,-1,-1,0,4,73,True,noresponse,None,81,
noise,0,-1,-1,0,4,74,True,no,1.1062531471252441,81,
noise,0,-1,-1,0,4,75,False,no,1.2110321521759033,81,
signal,0,-1,-1,0,4,76,True,no,2.2035279273986816,81,
signal,0,-1,-1,0,4,77,True,yes,0.8439619541168213,81,
signal,0,-1,-1,0,4,78,False,no,0.5930209159851074,81,
noise,0,-1,-1,0,4,79,True,no,0.48739004135131836,81,
signal,0,-1,-1,0,5,0,True,yes,1.210679054260254,81,
noise,0,-1,-1,0,5,1,False,no,1.2890679836273193,81,
noise,0,-1,-1,0,5,2,False,yes,1.0228710174560547,81,
noise,0,-1,-1,0,5,3,True,no,0.6767940521240234,81,
signal,0,-1,-1,0,5,4,False,no,1.3019778728485107,81,
signal,0,-1,-1,0,5,5,False,yes,0.6585979461669922,81,
noise,0,-1,-1,0,5,6,True,no,0.7037451267242432,81,
signal,0,-1,-1,0,5,7,False,yes,1.5272459983825684,81,
noise,0,-1,-1,0,5,8,True,no,2.2377490997314453,81,
signal,0,-1,-1,0,5,9,True,yes,0.8620119094848633,81,
noise,0,-1,-1,0,5,10,False,no,1.3997609615325928,81,
signal,0,-1,-1,0,5,11,False,yes,0.73443603515625,81,
noise,0,-1,-1,0,5,12,False,no,1.2807340621948242,81,
noise,0,-1,-1,0,5,13,False,no,1.5377349853515625,81,
signal,0,-1,-1,0,5,14,True,yes,0.6990189552307129,81,
noise,0,-1,-1,0,5,15,False,no,1.0261900424957275,81,
signal,0,-1,-1,0,5,16,True,yes,0.6764919757843018,81,
signal,0,-1,-1,0,5,17,True,yes,1.0192301273345947,81,
noise,0,-1,-1,0,5,18,False,no,1.5252702236175537,81,
noise,0,-1,-1,0,5,19,True,no,1.1520378589630127,81,
signal,0,-1,-1,0,5,20,True,yes,0.7028670310974121,81,
signal,0,-1,-1,0,5,21,False,yes,1.0103600025177002,81,
noise,0,-1,-1,0,5,22,False,no,0.9516029357910156,81,
noise,0,-1,-1,0,5,23,False,no,0.8518381118774414,81,
signal,0,-1,-1,0,5,24,True,yes,0.7370049953460693,81,
signal,0,-1,-1,0,5,25,False,no,0.9004220962524414,81,
signal,0,-1,-1,0,5,26,True,yes,0.7900381088256836,81,
noise,0,-1,-1,0,5,27,False,no,1.80063796043396,81,
noise,0,-1,-1,0,5,28,False,no,0.7630491256713867,81,
noise,0,-1,-1,0,5,29,True,no,0.7611539363861084,81,
noise,0,-1,-1,0,5,30,True,no,0.9951760768890381,81,
signal,0,-1,-1,0,5,31,False,yes,1.035055160522461,81,
noise,0,-1,-1,0,5,32,True,noresponse,None,81,
signal,0,-1,-1,0,5,33,False,no,0.9767382144927979,81,
signal,0,-1,-1,0,5,34,True,yes,0.6649808883666992,81,
noise,0,-1,-1,0,5,35,False,no,0.7601971626281738,81,
noise,0,-1,-1,0,5,36,True,no,0.7318100929260254,81,
signal,0,-1,-1,0,5,37,False,yes,1.00639009475708,81,
noise,0,-1,-1,0,5,38,True,no,0.6223320960998535,81,
noise,0,-1,-1,0,5,39,False,no,1.7817919254302979,81,
noise,0,-1,-1,0,5,40,False,no,1.5468339920043945,81,
noise,0,-1,-1,0,5,41,True,no,0.77457594871521,81,
signal,0,-1,-1,0,5,42,False,yes,0.7737128734588623,81,
signal,0,-1,-1,0,5,43,False,yes,0.8352999687194824,81,
signal,0,-1,-1,0,5,44,True,yes,0.8207371234893799,81,
signal,0,-1,-1,0,5,45,True,yes,0.7547929286956787,81,
noise,0,-1,-1,0,5,46,False,no,1.5186409950256348,81,
noise,0,-1,-1,0,5,47,True,noresponse,None,81,
signal,0,-1,-1,0,5,48,True,noresponse,None,81,
signal,0,-1,-1,0,5,49,True,yes,1.0219659805297852,81,
noise,0,-1,-1,0,5,50,False,no,0.8309359550476074,81,
noise,0,-1,-1,0,5,51,True,no,0.8823730945587158,81,
noise,0,-1,-1,0,5,52,False,no,0.9592399597167969,81,
noise,0,-1,-1,0,5,53,False,no,1.4556260108947754,81,
signal,0,-1,-1,0,5,54,False,yes,1.185124158859253,81,
noise,0,-1,-1,0,5,55,False,no,1.0772380828857422,81,
signal,0,-1,-1,0,5,56,True,yes,0.7607250213623047,81,
noise,0,-1,-1,0,5,57,False,no,0.9529550075531006,81,
signal,0,-1,-1,0,5,58,False,yes,1.1120209693908691,81,
signal,0,-1,-1,0,5,59,False,yes,0.6538209915161133,81,
signal,0,-1,-1,0,5,60,True,yes,0.7900831699371338,81,
signal,0,-1,-1,0,5,61,False,yes,0.7611329555511475,81,
signal,0,-1,-1,0,5,62,True,yes,1.7342069149017334,81,
signal,0,-1,-1,0,5,63,True,yes,0.689399003982544,81,
noise,0,-1,-1,0,5,64,True,no,0.9470930099487305,81,
noise,0,-1,-1,0,5,65,True,noresponse,None,81,
noise,0,-1,-1,0,5,66,False,no,1.2960219383239746,81,
signal,0,-1,-1,0,5,67,False,no,1.0521619319915771,81,
signal,0,-1,-1,0,5,68,False,yes,0.7537951469421387,81,
noise,0,-1,-1,0,5,69,False,no,1.1027591228485107,81,
signal,0,-1,-1,0,5,70,False,yes,0.8040299415588379,81,
signal,0,-1,-1,0,5,71,False,yes,0.7822630405426025,81,
noise,0,-1,-1,0,5,72,True,yes,0.9142439365386963,81,
noise,0,-1,-1,0,5,73,False,no,1.1915788650512695,81,
noise,0,-1,-1,0,5,74,True,no,0.8674111366271973,81,
noise,0,-1,-1,0,5,75,True,no,1.153120994567871,81,
signal,0,-1,-1,0,5,76,True,yes,0.7564120292663574,81,
signal,0,-1,-1,0,5,77,False,yes,1.3271889686584473,81,
signal,0,-1,-1,0,5,78,False,yes,1.0031538009643555,81,
signal,0,-1,-1,0,5,79,True,yes,1.687532901763916,81,
signal,0,-1,-1,0,6,0,False,no,1.3842840194702148,81,
signal,0,-1,-1,0,6,1,True,yes,1.4707698822021484,81,
signal,0,-1,-1,0,6,2,False,yes,0.6811201572418213,81,
noise,0,-1,-1,0,6,3,False,no,1.4642820358276367,81,
signal,0,-1,-1,0,6,4,True,noresponse,None,81,
signal,0,-1,-1,0,6,5,False,yes,0.937406063079834,81,
noise,0,-1,-1,0,6,6,False,no,1.2713909149169922,81,
signal,0,-1,-1,0,6,7,False,yes,0.6557929515838623,81,
signal,0,-1,-1,0,6,8,True,yes,1.2142829895019531,81,
noise,0,-1,-1,0,6,9,False,no,1.2347431182861328,81,
signal,0,-1,-1,0,6,10,False,yes,1.864258050918579,81,
noise,0,-1,-1,0,6,11,True,no,0.6585390567779541,81,
noise,0,-1,-1,0,6,12,True,no,0.8026459217071533,81,
noise,0,-1,-1,0,6,13,False,no,1.4899921417236328,81,
noise,0,-1,-1,0,6,14,False,no,0.9789769649505615,81,
signal,0,-1,-1,0,6,15,True,no,0.8592801094055176,81,
noise,0,-1,-1,0,6,16,False,no,0.7643558979034424,81,
noise,0,-1,-1,0,6,17,False,no,0.9646849632263184,81,
noise,0,-1,-1,0,6,18,True,no,0.6888909339904785,81,
signal,0,-1,-1,0,6,19,True,yes,0.7871279716491699,81,
noise,0,-1,-1,0,6,20,True,no,0.8518319129943848,81,
noise,0,-1,-1,0,6,21,True,no,0.6460719108581543,81,
signal,0,-1,-1,0,6,22,True,yes,1.309722900390625,81,
signal,0,-1,-1,0,6,23,False,yes,1.1202468872070312,81,
noise,0,-1,-1,0,6,24,False,no,0.7217988967895508,81,
noise,0,-1,-1,0,6,25,True,no,0.7582840919494629,81,
signal,0,-1,-1,0,6,26,False,yes,1.003544807434082,81,
noise,0,-1,-1,0,6,27,False,no,0.6893620491027832,81,
signal,0,-1,-1,0,6,28,False,yes,0.8712499141693115,81,
signal,0,-1,-1,0,6,29,True,yes,0.9940299987792969,81,
noise,0,-1,-1,0,6,30,True,no,0.7477610111236572,81,
noise,0,-1,-1,0,6,31,True,no,0.7241020202636719,81,
signal,0,-1,-1,0,6,32,True,yes,0.7597789764404297,81,
noise,0,-1,-1,0,6,33,False,no,0.8117759227752686,81,
signal,0,-1,-1,0,6,34,True,noresponse,None,81,
signal,0,-1,-1,0,6,35,False,yes,0.9185969829559326,81,
noise,0,-1,-1,0,6,36,False,no,1.1761491298675537,81,
signal,0,-1,-1,0,6,37,True,yes,1.2979519367218018,81,
noise,0,-1,-1,0,6,38,False,no,1.1854169368743896,81,
signal,0,-1,-1,0,6,39,False,yes,0.905048131942749,81,
signal,0,-1,-1,0,6,40,False,yes,1.0515899658203125,81,
noise,0,-1,-1,0,6,41,True,yes,0.8094861507415771,81,
noise,0,-1,-1,0,6,42,False,no,1.2331409454345703,81,
noise,0,-1,-1,0,6,43,True,no,0.7954199314117432,81,
signal,0,-1,-1,0,6,44,True,yes,1.5726709365844727,81,
signal,0,-1,-1,0,6,45,False,no,1.5409839153289795,81,
noise,0,-1,-1,0,6,46,True,no,0.8734920024871826,81,
signal,0,-1,-1,0,6,47,True,yes,0.9721329212188721,81,
noise,0,-1,-1,0,6,48,False,no,1.2043519020080566,81,
noise,0,-1,-1,0,6,49,True,no,1.0714490413665771,81,
noise,0,-1,-1,0,6,50,True,no,0.8208780288696289,81,
noise,0,-1,-1,0,6,51,False,no,0.834298849105835,81,
signal,0,-1,-1,0,6,52,False,yes,1.1806809902191162,81,
noise,0,-1,-1,0,6,53,True,no,0.6986360549926758,81,
signal,0,-1,-1,0,6,54,True,yes,1.1538701057434082,81,
signal,0,-1,-1,0,6,55,False,yes,0.9837119579315186,81,
signal,0,-1,-1,0,6,56,False,yes,1.755420207977295,81,
signal,0,-1,-1,0,6,57,False,yes,0.9670419692993164,81,
noise,0,-1,-1,0,6,58,True,no,1.4025049209594727,81,
signal,0,-1,-1,0,6,59,True,yes,1.2831501960754395,81,
noise,0,-1,-1,0,6,60,False,no,0.8280689716339111,81,
noise,0,-1,-1,0,6,61,False,no,0.9745991230010986,81,
noise,0,-1,-1,0,6,62,False,no,0.9289681911468506,81,
noise,0,-1,-1,0,6,63,False,no,0.6399190425872803,81,
signal,0,-1,-1,0,6,64,True,yes,1.202566146850586,81,
noise,0,-1,-1,0,6,65,False,no,1.2215700149536133,81,
noise,0,-1,-1,0,6,66,True,noresponse,None,81,
signal,0,-1,-1,0,6,67,True,yes,0.9679980278015137,81,
signal,0,-1,-1,0,6,68,True,noresponse,None,81,
noise,0,-1,-1,0,6,69,False,no,0.8290867805480957,81,
signal,0,-1,-1,0,6,70,True,noresponse,None,81,
signal,0,-1,-1,0,6,71,True,yes,1.102431058883667,81,
noise,0,-1,-1,0,6,72,False,no,0.8776829242706299,81,
signal,0,-1,-1,0,6,73,False,yes,1.2319350242614746,81,
signal,0,-1,-1,0,6,74,False,yes,1.8780450820922852,81,
signal,0,-1,-1,0,6,75,True,yes,1.3552379608154297,81,
signal,0,-1,-1,0,6,76,False,no,1.3378040790557861,81,
noise,0,-1,-1,0,6,77,False,no,0.7572720050811768,81,
signal,0,-1,-1,0,6,78,True,yes,1.2295629978179932,81,
noise,0,-1,-1,0,6,79,False,no,1.629986047744751,81,
signal,0,-1,-1,0,7,0,True,yes,1.524980068206787,81,
signal,0,-1,-1,0,7,1,False,yes,1.1974799633026123,81,
noise,0,-1,-1,0,7,2,False,no,1.1869192123413086,81,
signal,0,-1,-1,0,7,3,False,yes,1.1493351459503174,81,
signal,0,-1,-1,0,7,4,True,yes,1.5182499885559082,81,
signal,0,-1,-1,0,7,5,False,yes,0.7011880874633789,81,
signal,0,-1,-1,0,7,6,False,yes,0.8296499252319336,81,
noise,0,-1,-1,0,7,7,True,no,0.8081190586090088,81,
signal,0,-1,-1,0,7,8,False,yes,1.112860918045044,81,
signal,0,-1,-1,0,7,9,True,yes,0.8466567993164062,81,
signal,0,-1,-1,0,7,10,False,yes,1.2071499824523926,81,
noise,0,-1,-1,0,7,11,True,no,0.784721851348877,81,
signal,0,-1,-1,0,7,12,True,yes,0.6868181228637695,81,
signal,0,-1,-1,0,7,13,True,noresponse,None,81,
signal,0,-1,-1,0,7,14,True,yes,0.8911149501800537,81,
signal,0,-1,-1,0,7,15,False,yes,0.9888160228729248,81,
noise,0,-1,-1,0,7,16,False,no,1.7893600463867188,81,
noise,0,-1,-1,0,7,17,False,no,0.773078203201294,81,
noise,0,-1,-1,0,7,18,True,no,0.706510066986084,81,
noise,0,-1,-1,0,7,19,True,no,0.9575297832489014,81,
noise,0,-1,-1,0,7,20,False,no,0.96828293800354,81,
noise,0,-1,-1,0,7,21,True,no,0.6136109828948975,81,
noise,0,-1,-1,0,7,22,False,no,0.8991692066192627,81,
noise,0,-1,-1,0,7,23,False,no,0.7697649002075195,81,
noise,0,-1,-1,0,7,24,False,no,1.5111329555511475,81,
noise,0,-1,-1,0,7,25,True,no,0.8094789981842041,81,
noise,0,-1,-1,0,7,26,False,no,1.4478189945220947,81,
signal,0,-1,-1,0,7,27,False,yes,1.3889179229736328,81,
signal,0,-1,-1,0,7,28,False,no,0.7472689151763916,81,
signal,0,-1,-1,0,7,29,False,yes,1.5210680961608887,81,
noise,0,-1,-1,0,7,30,False,no,1.0476558208465576,81,
signal,0,-1,-1,0,7,31,True,yes,1.8194952011108398,81,
signal,0,-1,-1,0,7,32,True,noresponse,None,81,
signal,0,-1,-1,0,7,33,True,yes,0.8830180168151855,81,
noise,0,-1,-1,0,7,34,True,no,0.7079288959503174,81,
signal,0,-1,-1,0,7,35,False,yes,0.9383058547973633,81,
signal,0,-1,-1,0,7,36,True,yes,1.3706481456756592,81,
noise,0,-1,-1,0,7,37,True,no,1.7336211204528809,81,
noise,0,-1,-1,0,7,38,True,no,2.196621894836426,81,
signal,0,-1,-1,0,7,39,True,yes,2.204526901245117,81,
signal,0,-1,-1,0,7,40,False,no,1.3841328620910645,81,
signal,0,-1,-1,0,7,41,True,yes,0.9996931552886963,81,
noise,0,-1,-1,0,7,42,True,no,0.8157000541687012,81,
noise,0,-1,-1,0,7,43,False,no,1.1462771892547607,81,
signal,0,-1,-1,0,7,44,True,yes,0.6719920635223389,81,
signal,0,-1,-1,0,7,45,True,no,0.6192049980163574,81,
noise,0,-1,-1,0,7,46,False,no,0.8951940536499023,81,
signal,0,-1,-1,0,7,47,False,yes,1.0312681198120117,81,
noise,0,-1,-1,0,7,48,False,no,1.495082139968872,81,
noise,0,-1,-1,0,7,49,True,no,1.0258538722991943,81,
noise,0,-1,-1,0,7,50,False,no,1.130906105041504,81,
signal,0,-1,-1,0,7,51,False,no,1.2351019382476807,81,
signal,0,-1,-1,0,7,52,True,yes,1.0375378131866455,81,
signal,0,-1,-1,0,7,53,True,no,0.7008178234100342,81,
signal,0,-1,-1,0,7,54,True,yes,0.7914400100708008,81,
noise,0,-1,-1,0,7,55,False,no,1.1689159870147705,81,
noise,0,-1,-1,0,7,56,False,no,1.0850448608398438,81,
noise,0,-1,-1,0,7,57,True,no,1.2584340572357178,81,
noise,0,-1,-1,0,7,58,True,no,0.641395092010498,81,
noise,0,-1,-1,0,7,59,True,no,0.5692169666290283,81,
signal,0,-1,-1,0,7,60,False,no,1.2150399684906006,81,
signal,0,-1,-1,0,7,61,True,yes,1.3501429557800293,81,
noise,0,-1,-1,0,7,62,True,no,1.2576489448547363,81,
noise,0,-1,-1,0,7,63,True,no,0.623488187789917,81,
signal,0,-1,-1,0,7,64,True,yes,0.7919788360595703,81,
noise,0,-1,-1,0,7,65,True,no,0.7509829998016357,81,
signal,0,-1,-1,0,7,66,True,yes,0.6480751037597656,81,
noise,0,-1,-1,0,7,67,False,no,0.9944489002227783,81,
noise,0,-1,-1,0,7,68,True,no,0.7065939903259277,81,
signal,0,-1,-1,0,7,69,True,yes,1.473634958267212,81,
signal,0,-1,-1,0,7,70,False,yes,0.8710880279541016,81,
noise,0,-1,-1,0,7,71,True,noresponse,None,81,
noise,0,-1,-1,0,7,72,True,no,1.3167829513549805,81,
noise,0,-1,-1,0,7,73,False,no,0.9951901435852051,81,
noise,0,-1,-1,0,7,74,True,no,1.351830005645752,81,
signal,0,-1,-1,0,7,75,False,yes,1.492177963256836,81,
noise,0,-1,-1,0,7,76,True,no,1.844648838043213,81,
signal,0,-1,-1,0,7,77,False,yes,1.2806529998779297,81,
noise,0,-1,-1,0,7,78,False,no,1.729996919631958,81,
signal,0,-1,-1,0,7,79,False,yes,0.8394720554351807,81,
noise,0,0,0,73,8,0,False,yes,1.4824137687683105,81,
noise,0,1,1,55,8,1,True,no,0.7780358791351318,81,
noise,0,2,2,19,8,2,True,no,0.6975750923156738,81,
noise,0,3,3,17,8,3,True,no,0.5511171817779541,81,
signal,0,4,4,22,8,4,True,yes,1.0442049503326416,81,
signal,0,5,5,68,8,5,True,yes,1.5381040573120117,81,
noise,0,6,6,45,8,6,False,no,1.7994468212127686,81,
signal,0,7,7,78,8,7,False,yes,1.685750961303711,81,
signal,0,8,8,28,8,8,True,yes,0.9250080585479736,81,
signal,0,9,9,52,8,9,True,yes,0.8736369609832764,81,
signal,0,10,10,64,8,10,True,yes,0.6565120220184326,81,
noise,0,11,11,41,8,11,False,no,1.1115851402282715,81,
noise,0,12,12,53,8,12,False,no,0.7849619388580322,81,
signal,0,13,13,50,8,13,True,yes,1.050257921218872,81,
noise,0,14,14,69,8,14,True,no,0.7506711483001709,81,
noise,0,15,15,49,8,15,True,no,0.8821079730987549,81,
noise,0,16,16,61,8,16,False,no,0.8072099685668945,81,
noise,0,17,17,59,8,17,False,no,0.8403580188751221,81,
noise,0,18,18,11,8,18,False,no,1.2337870597839355,81,
noise,0,19,19,29,8,19,True,no,0.6642870903015137,81,
noise,0,20,20,43,8,20,True,no,0.7391269207000732,81,
signal,0,21,21,76,8,21,False,yes,1.6507880687713623,81,
noise,0,22,22,3,8,22,True,no,0.8345379829406738,81,
signal,0,23,23,74,8,23,True,yes,0.8792619705200195,81,
signal,0,24,24,24,8,24,True,yes,0.8048179149627686,81,
noise,0,25,25,47,8,25,False,no,1.6476209163665771,81,
noise,0,26,26,25,8,26,False,no,1.8538119792938232,81,
noise,0,27,27,33,8,27,True,no,0.8265957832336426,81,
signal,0,28,28,70,8,28,True,yes,0.8303089141845703,81,
noise,0,29,29,9,8,29,False,no,1.262387990951538,81,
noise,0,30,30,51,8,30,True,no,0.6578319072723389,81,
signal,0,31,31,36,8,31,True,noresponse,None,81,
signal,0,32,32,60,8,32,True,yes,1.0449960231781006,81,
signal,0,33,33,16,8,33,True,yes,1.894550085067749,81,
signal,0,34,34,4,8,34,True,yes,1.5715909004211426,81,
signal,0,35,35,18,8,35,True,yes,0.8104841709136963,81,
noise,0,36,36,23,8,36,False,no,1.0897908210754395,81,
signal,0,37,37,26,8,37,False,yes,0.8709628582000732,81,
noise,0,38,38,21,8,38,True,no,0.8286678791046143,81,
signal,0,39,39,44,8,39,False,yes,0.8694748878479004,81,
signal,0,40,40,10,8,40,True,yes,1.0934779644012451,81,
signal,0,41,41,0,8,41,False,yes,0.9375629425048828,81,
noise,0,42,42,57,8,42,False,no,1.069659948348999,81,
signal,0,43,43,72,8,43,False,yes,0.9786250591278076,81,
noise,0,44,44,13,8,44,True,no,1.3930351734161377,81,
noise,0,45,45,63,8,45,True,no,0.6918377876281738,81,
noise,0,46,46,71,8,46,True,no,0.4973630905151367,81,
noise,0,47,47,15,8,47,False,no,1.5467910766601562,81,
signal,0,48,48,56,8,48,False,yes,1.641922950744629,81,
noise,0,49,49,1,8,49,False,no,1.5981669425964355,81,
signal,0,50,50,12,8,50,True,yes,0.7940940856933594,81,
signal,0,51,51,32,8,51,True,yes,1.5763630867004395,81,
noise,0,52,52,5,8,52,False,no,1.0062501430511475,81,
signal,0,53,53,62,8,53,True,yes,1.0594050884246826,81,
signal,0,54,54,66,8,54,False,yes,1.3036479949951172,81,
noise,0,55,55,31,8,55,True,no,0.8269529342651367,81,
signal,0,56,56,20,8,56,True,yes,0.7850570678710938,81,
noise,0,57,57,39,8,57,False,no,0.8516700267791748,81,
noise,0,58,58,79,8,58,True,no,0.7893869876861572,81,
signal,0,59,59,38,8,59,False,yes,0.8681788444519043,81,
signal,0,60,60,6,8,60,False,yes,1.161329984664917,81,
signal,0,61,61,40,8,61,True,yes,0.8192391395568848,81,
noise,0,62,62,27,8,62,False,no,1.6527559757232666,81,
noise,0,63,63,75,8,63,True,no,1.5842578411102295,81,
signal,0,64,64,48,8,64,False,yes,1.364854097366333,81,
signal,0,65,65,42,8,65,True,yes,0.9129219055175781,81,
noise,0,66,66,37,8,66,True,no,0.692115068435669,81,
noise,0,67,67,67,8,67,False,no,1.191615104675293,81,
signal,0,68,68,30,8,68,False,no,0.924340009689331,81,
noise,0,69,69,7,8,69,False,no,0.9651589393615723,81,
noise,0,70,70,65,8,70,True,no,1.1358511447906494,81,
noise,0,71,71,77,8,71,True,no,0.48907899856567383,81,
noise,0,72,72,35,8,72,True,no,0.8849899768829346,81,
signal,0,73,73,58,8,73,True,yes,0.8421721458435059,81,
signal,0,74,74,34,8,74,True,yes,1.7022650241851807,81,
signal,0,75,75,14,8,75,False,yes,1.0718932151794434,81,
signal,0,76,76,2,8,76,False,yes,1.5098381042480469,81,
signal,0,77,77,54,8,77,True,yes,1.1666760444641113,81,
signal,0,78,78,46,8,78,False,yes,1.2656447887420654,81,
signal,0,79,79,8,8,79,True,yes,0.8227899074554443,81,
