condition,.thisRepN,.thisTrialN,.thisN,.thisIndex,block,trial,response,pair_id,chamber,threshold,
signal,0,-1,-1,0,1,0,8,9282,2,0.018737276087194638,
signal,0,-1,-1,0,1,1,8,9282,2,0.018737276087194638,
signal,0,-1,-1,0,1,2,7,9282,2,0.018737276087194638,
noise,0,-1,-1,0,1,3,8,9282,2,0.018737276087194638,
noise,0,-1,-1,0,1,4,8,9282,2,0.018737276087194638,
signal,0,-1,-1,0,1,5,8,9282,2,0.018737276087194638,
noise,0,-1,-1,0,1,6,7,9282,2,0.018737276087194638,
noise,0,-1,-1,0,1,7,8,9282,2,0.018737276087194638,
noise,0,-1,-1,0,1,8,8,9282,2,0.018737276087194638,
noise,0,-1,-1,0,1,9,8,9282,2,0.018737276087194638,
signal,0,-1,-1,0,1,10,8,9282,2,0.018737276087194638,
signal,0,-1,-1,0,1,11,8,9282,2,0.018737276087194638,
signal,0,-1,-1,0,1,12,8,9282,2,0.018737276087194638,
signal,0,-1,-1,0,1,13,8,9282,2,0.018737276087194638,
noise,0,-1,-1,0,1,14,8,9282,2,0.018737276087194638,
signal,0,-1,-1,0,1,15,8,9282,2,0.018737276087194638,
signal,0,-1,-1,0,1,16,8,9282,2,0.018737276087194638,
noise,0,-1,-1,0,1,17,8,9282,2,0.018737276087194638,
signal,0,-1,-1,0,1,18,8,9282,2,0.018737276087194638,
noise,0,-1,-1,0,1,19,8,9282,2,0.018737276087194638,
noise,0,-1,-1,0,1,20,8,9282,2,0.018737276087194638,
noise,0,-1,-1,0,1,21,8,9282,2,0.018737276087194638,
noise,0,-1,-1,0,1,22,8,9282,2,0.018737276087194638,
signal,0,-1,-1,0,1,23,7,9282,2,0.018737276087194638,
signal,0,-1,-1,0,1,24,8,9282,2,0.018737276087194638,
noise,0,-1,-1,0,1,25,8,9282,2,0.018737276087194638,
signal,0,-1,-1,0,1,26,8,9282,2,0.018737276087194638,
noise,0,-1,-1,0,1,27,8,9282,2,0.018737276087194638,
signal,0,-1,-1,0,1,28,8,9282,2,0.018737276087194638,
signal,0,-1,-1,0,1,29,8,9282,2,0.018737276087194638,
signal,0,-1,-1,0,1,30,7,9282,2,0.018737276087194638,
noise,0,-1,-1,0,1,31,8,9282,2,0.018737276087194638,
noise,0,-1,-1,0,1,32,8,9282,2,0.018737276087194638,
noise,0,-1,-1,0,1,33,8,9282,2,0.018737276087194638,
signal,0,-1,-1,0,1,34,8,9282,2,0.018737276087194638,
noise,0,-1,-1,0,1,35,8,9282,2,0.018737276087194638,
noise,0,-1,-1,0,1,36,8,9282,2,0.018737276087194638,
signal,0,-1,-1,0,1,37,8,9282,2,0.018737276087194638,
signal,0,-1,-1,0,1,38,8,9282,2,0.018737276087194638,
signal,0,-1,-1,0,1,39,7,9282,2,0.018737276087194638,
signal,0,-1,-1,0,1,40,7,9282,2,0.018737276087194638,
noise,0,-1,-1,0,1,41,8,9282,2,0.018737276087194638,
noise,0,-1,-1,0,1,42,8,9282,2,0.018737276087194638,
noise,0,-1,-1,0,1,43,8,9282,2,0.018737276087194638,
noise,0,-1,-1,0,1,44,8,9282,2,0.018737276087194638,
signal,0,-1,-1,0,1,45,8,9282,2,0.018737276087194638,
signal,0,-1,-1,0,1,46,8,9282,2,0.018737276087194638,
noise,0,-1,-1,0,1,47,noresponse,9282,2,0.018737276087194638,
noise,0,-1,-1,0,1,48,8,9282,2,0.018737276087194638,
signal,0,-1,-1,0,1,49,noresponse,9282,2,0.018737276087194638,
signal,0,-1,-1,0,2,0,noresponse,9282,2,0.018737276087194638,
signal,0,-1,-1,0,2,1,7,9282,2,0.018737276087194638,
signal,0,-1,-1,0,2,2,7,9282,2,0.018737276087194638,
noise,0,-1,-1,0,2,3,8,9282,2,0.018737276087194638,
signal,0,-1,-1,0,2,4,8,9282,2,0.018737276087194638,
signal,0,-1,-1,0,2,5,8,9282,2,0.018737276087194638,
noise,0,-1,-1,0,2,6,8,9282,2,0.018737276087194638,
signal,0,-1,-1,0,2,7,7,9282,2,0.018737276087194638,
noise,0,-1,-1,0,2,8,8,9282,2,0.018737276087194638,
noise,0,-1,-1,0,2,9,8,9282,2,0.018737276087194638,
noise,0,-1,-1,0,2,10,8,9282,2,0.018737276087194638,
noise,0,-1,-1,0,2,11,noresponse,9282,2,0.018737276087194638,
noise,0,-1,-1,0,2,12,7,9282,2,0.018737276087194638,
noise,0,-1,-1,0,2,13,8,9282,2,0.018737276087194638,
noise,0,-1,-1,0,2,14,8,9282,2,0.018737276087194638,
signal,0,-1,-1,0,2,15,7,9282,2,0.018737276087194638,
signal,0,-1,-1,0,2,16,8,9282,2,0.018737276087194638,
signal,0,-1,-1,0,2,17,7,9282,2,0.018737276087194638,
signal,0,-1,-1,0,2,18,7,9282,2,0.018737276087194638,
signal,0,-1,-1,0,2,19,7,9282,2,0.018737276087194638,
noise,0,-1,-1,0,2,20,8,9282,2,0.018737276087194638,
signal,0,-1,-1,0,2,21,7,9282,2,0.018737276087194638,
signal,0,-1,-1,0,2,22,7,9282,2,0.018737276087194638,
noise,0,-1,-1,0,2,23,8,9282,2,0.018737276087194638,
noise,0,-1,-1,0,2,24,noresponse,9282,2,0.018737276087194638,
signal,0,-1,-1,0,2,25,7,9282,2,0.018737276087194638,
noise,0,-1,-1,0,2,26,8,9282,2,0.018737276087194638,
noise,0,-1,-1,0,2,27,8,9282,2,0.018737276087194638,
noise,0,-1,-1,0,2,28,8,9282,2,0.018737276087194638,
signal,0,-1,-1,0,2,29,7,9282,2,0.018737276087194638,
noise,0,-1,-1,0,2,30,8,9282,2,0.018737276087194638,
noise,0,-1,-1,0,2,31,8,9282,2,0.018737276087194638,
noise,0,-1,-1,0,2,32,8,9282,2,0.018737276087194638,
signal,0,-1,-1,0,2,33,7,9282,2,0.018737276087194638,
noise,0,-1,-1,0,2,34,8,9282,2,0.018737276087194638,
noise,0,-1,-1,0,2,35,8,9282,2,0.018737276087194638,
noise,0,-1,-1,0,2,36,8,9282,2,0.018737276087194638,
signal,0,-1,-1,0,2,37,8,9282,2,0.018737276087194638,
signal,0,-1,-1,0,2,38,7,9282,2,0.018737276087194638,
signal,0,-1,-1,0,2,39,7,9282,2,0.018737276087194638,
signal,0,-1,-1,0,2,40,7,9282,2,0.018737276087194638,
noise,0,-1,-1,0,2,41,8,9282,2,0.018737276087194638,
signal,0,-1,-1,0,2,42,7,9282,2,0.018737276087194638,
signal,0,-1,-1,0,2,43,7,9282,2,0.018737276087194638,
noise,0,-1,-1,0,2,44,8,9282,2,0.018737276087194638,
signal,0,-1,-1,0,2,45,7,9282,2,0.018737276087194638,
signal,0,-1,-1,0,2,46,7,9282,2,0.018737276087194638,
noise,0,-1,-1,0,2,47,8,9282,2,0.018737276087194638,
signal,0,-1,-1,0,2,48,7,9282,2,0.018737276087194638,
noise,0,-1,-1,0,2,49,8,9282,2,0.018737276087194638,
signal,0,-1,-1,0,3,0,8,9282,2,0.018737276087194638,
signal,0,-1,-1,0,3,1,8,9282,2,0.018737276087194638,
signal,0,-1,-1,0,3,2,7,9282,2,0.018737276087194638,
noise,0,-1,-1,0,3,3,8,9282,2,0.018737276087194638,
signal,0,-1,-1,0,3,4,8,9282,2,0.018737276087194638,
noise,0,-1,-1,0,3,5,8,9282,2,0.018737276087194638,
signal,0,-1,-1,0,3,6,8,9282,2,0.018737276087194638,
signal,0,-1,-1,0,3,7,7,9282,2,0.018737276087194638,
noise,0,-1,-1,0,3,8,8,9282,2,0.018737276087194638,
signal,0,-1,-1,0,3,9,7,9282,2,0.018737276087194638,
noise,0,-1,-1,0,3,10,8,9282,2,0.018737276087194638,
signal,0,-1,-1,0,3,11,7,9282,2,0.018737276087194638,
signal,0,-1,-1,0,3,12,noresponse,9282,2,0.018737276087194638,
noise,0,-1,-1,0,3,13,8,9282,2,0.018737276087194638,
noise,0,-1,-1,0,3,14,8,9282,2,0.018737276087194638,
noise,0,-1,-1,0,3,15,8,9282,2,0.018737276087194638,
signal,0,-1,-1,0,3,16,7,9282,2,0.018737276087194638,
signal,0,-1,-1,0,3,17,7,9282,2,0.018737276087194638,
noise,0,-1,-1,0,3,18,8,9282,2,0.018737276087194638,
noise,0,-1,-1,0,3,19,8,9282,2,0.018737276087194638,
noise,0,-1,-1,0,3,20,8,9282,2,0.018737276087194638,
signal,0,-1,-1,0,3,21,noresponse,9282,2,0.018737276087194638,
noise,0,-1,-1,0,3,22,8,9282,2,0.018737276087194638,
signal,0,-1,-1,0,3,23,7,9282,2,0.018737276087194638,
signal,0,-1,-1,0,3,24,7,9282,2,0.018737276087194638,
signal,0,-1,-1,0,3,25,8,9282,2,0.018737276087194638,
signal,0,-1,-1,0,3,26,7,9282,2,0.018737276087194638,
signal,0,-1,-1,0,3,27,7,9282,2,0.018737276087194638,
signal,0,-1,-1,0,3,28,7,9282,2,0.018737276087194638,
signal,0,-1,-1,0,3,29,7,9282,2,0.018737276087194638,
signal,0,-1,-1,0,3,30,7,9282,2,0.018737276087194638,
noise,0,-1,-1,0,3,31,8,9282,2,0.018737276087194638,
noise,0,-1,-1,0,3,32,8,9282,2,0.018737276087194638,
signal,0,-1,-1,0,3,33,7,9282,2,0.018737276087194638,
noise,0,-1,-1,0,3,34,8,9282,2,0.018737276087194638,
noise,0,-1,-1,0,3,35,8,9282,2,0.018737276087194638,
noise,0,-1,-1,0,3,36,8,9282,2,0.018737276087194638,
noise,0,-1,-1,0,3,37,8,9282,2,0.018737276087194638,
noise,0,-1,-1,0,3,38,8,9282,2,0.018737276087194638,
signal,0,-1,-1,0,3,39,7,9282,2,0.018737276087194638,
noise,0,-1,-1,0,3,40,8,9282,2,0.018737276087194638,
signal,0,-1,-1,0,3,41,8,9282,2,0.018737276087194638,
noise,0,-1,-1,0,3,42,8,9282,2,0.018737276087194638,
signal,0,-1,-1,0,3,43,7,9282,2,0.018737276087194638,
noise,0,-1,-1,0,3,44,8,9282,2,0.018737276087194638,
signal,0,-1,-1,0,3,45,7,9282,2,0.018737276087194638,
noise,0,-1,-1,0,3,46,8,9282,2,0.018737276087194638,
noise,0,-1,-1,0,3,47,8,9282,2,0.018737276087194638,
noise,0,-1,-1,0,3,48,8,9282,2,0.018737276087194638,
noise,0,-1,-1,0,3,49,8,9282,2,0.018737276087194638,
signal,0,0,0,46,4,0,7,9282,2,0.018737276087194638,
signal,0,1,1,0,4,1,7,9282,2,0.018737276087194638,
noise,0,2,2,49,4,2,8,9282,2,0.018737276087194638,
noise,0,3,3,27,4,3,8,9282,2,0.018737276087194638,
noise,0,4,4,7,4,4,8,9282,2,0.018737276087194638,
noise,0,5,5,33,4,5,8,9282,2,0.018737276087194638,
noise,0,6,6,25,4,6,8,9282,2,0.018737276087194638,
signal,0,7,7,30,4,7,8,9282,2,0.018737276087194638,
noise,0,8,8,11,4,8,8,9282,2,0.018737276087194638,
signal,0,9,9,34,4,9,7,9282,2,0.018737276087194638,
noise,0,10,10,31,4,10,8,9282,2,0.018737276087194638,
noise,0,11,11,17,4,11,8,9282,2,0.018737276087194638,
signal,0,12,12,20,4,12,7,9282,2,0.018737276087194638,
signal,0,13,13,2,4,13,8,9282,2,0.018737276087194638,
noise,0,14,14,1,4,14,8,9282,2,0.018737276087194638,
signal,0,15,15,14,4,15,7,9282,2,0.018737276087194638,
signal,0,16,16,44,4,16,8,9282,2,0.018737276087194638,
signal,0,17,17,28,4,17,7,9282,2,0.018737276087194638,
noise,0,18,18,9,4,18,8,9282,2,0.018737276087194638,
signal,0,19,19,6,4,19,7,9282,2,0.018737276087194638,
noise,0,20,20,39,4,20,8,9282,2,0.018737276087194638,
signal,0,21,21,24,4,21,8,9282,2,0.018737276087194638,
noise,0,22,22,23,4,22,8,9282,2,0.018737276087194638,
noise,0,23,23,15,4,23,8,9282,2,0.018737276087194638,
signal,0,24,24,16,4,24,7,9282,2,0.018737276087194638,
noise,0,25,25,3,4,25,8,9282,2,0.018737276087194638,
noise,0,26,26,29,4,26,8,9282,2,0.018737276087194638,
signal,0,27,27,18,4,27,7,9282,2,0.018737276087194638,
signal,0,28,28,12,4,28,8,9282,2,0.018737276087194638,
signal,0,29,29,48,4,29,7,9282,2,0.018737276087194638,
signal,0,30,30,10,4,30,7,9282,2,0.018737276087194638,
signal,0,31,31,42,4,31,7,9282,2,0.018737276087194638,
signal,0,32,32,26,4,32,7,9282,2,0.018737276087194638,
noise,0,33,33,5,4,33,8,9282,2,0.018737276087194638,
signal,0,34,34,8,4,34,7,9282,2,0.018737276087194638,
noise,0,35,35,35,4,35,8,9282,2,0.018737276087194638,
signal,0,36,36,22,4,36,7,9282,2,0.018737276087194638,
noise,0,37,37,37,4,37,8,9282,2,0.018737276087194638,
noise,0,38,38,13,4,38,8,9282,2,0.018737276087194638,
noise,0,39,39,43,4,39,8,9282,2,0.018737276087194638,
signal,0,40,40,38,4,40,8,9282,2,0.018737276087194638,
noise,0,41,41,45,4,41,8,9282,2,0.018737276087194638,
noise,0,42,42,21,4,42,8,9282,2,0.018737276087194638,
signal,0,43,43,36,4,43,7,9282,2,0.018737276087194638,
noise,0,44,44,47,4,44,8,9282,2,0.018737276087194638,
noise,0,45,45,19,4,45,8,9282,2,0.018737276087194638,
noise,0,46,46,41,4,46,8,9282,2,0.018737276087194638,
signal,0,47,47,40,4,47,7,9282,2,0.018737276087194638,
signal,0,48,48,4,4,48,7,9282,2,0.018737276087194638,
signal,0,49,49,32,4,49,7,9282,2,0.018737276087194638,
