block,trial,s1_state,direction,response,rt,pair
0,0,True,left,left,1.2537038326,719882
0,1,True,left,right,0.9750249386,719882
0,2,False,left,right,1.4482591152,719882
0,3,True,right,right,0.7318680286,719882
0,4,True,right,right,0.8509328365,719882
0,5,False,right,right,1.0489721298,719882
0,6,False,left,left,1.1550228596,719882
0,7,True,left,right,0.8498649597,719882
0,8,False,right,left,0.9195859432,719882
0,9,False,right,right,0.9372639656,719882
0,10,False,right,right,0.6800551414,719882
0,11,False,right,right,0.7111749649,719882
0,12,True,right,right,0.7124330997,719882
0,13,True,right,right,0.724396944,719882
0,14,True,right,right,1.3145279884,719882
0,15,True,right,right,0.9648561478,719882
0,16,False,left,left,0.868324995,719882
0,17,True,left,left,0.8231589794,719882
0,18,False,right,right,0.7471971512,719882
0,19,False,left,left,0.9218969345,719882
0,20,True,right,right,0.6614718437,719882
0,21,False,right,right,0.9399931431,719882
0,22,True,left,left,1.3146829605,719882
0,23,True,right,right,0.7572607994,719882
0,24,False,left,right,1.7614059448,719882
0,25,False,right,right,0.6609680653,719882
0,26,False,right,right,0.9667229652,719882
0,27,True,right,right,0.7135009766,719882
0,28,False,left,left,0.6018049717,719882
0,29,False,left,right,0.8150520325,719882
0,30,False,left,left,0.6618390083,719882
0,31,False,left,right,0.708963871,719882
0,32,False,right,right,0.6494431496,719882
0,33,True,right,right,0.7782800198,719882
0,34,True,left,left,1.1472680569,719882
0,35,False,left,right,0.8744418621,719882
0,36,True,right,right,0.97073102,719882
0,37,False,right,left,0.8672120571,719882
0,38,True,right,right,0.9480779171,719882
0,39,False,right,right,1.293307066,719882
0,40,True,right,right,1.0002110004,719882
0,41,False,right,right,0.9882349968,719882
0,42,True,left,left,1.098582983,719882
0,43,False,right,right,0.91760993,719882
0,44,False,right,right,1.0198428631,719882
0,45,True,left,left,1.2763428688,719882
0,46,False,left,right,0.727976799,719882
0,47,True,left,left,1.2687418461,719882
0,48,True,left,right,1.3134241104,719882
0,49,False,left,left,0.7300028801,719882
0,50,True,right,right,1.1511318684,719882
0,51,True,right,right,1.1387808323,719882
0,52,True,left,left,1.201832056,719882
0,53,False,left,left,1.0644831657,719882
0,54,False,right,right,0.6745188236,719882
0,55,True,left,left,0.9148068428,719882
0,56,False,left,left,1.0695650578,719882
0,57,False,left,right,0.874363184,719882
0,58,False,left,left,0.9083969593,719882
0,59,False,right,right,0.8064539433,719882
0,60,True,left,left,1.1561799049,719882
0,61,True,left,left,1.5350511074,719882
0,62,False,right,right,0.7442469597,719882
0,63,True,left,left,1.3565130234,719882
0,64,False,right,right,0.6405830383,719882
0,65,True,left,left,1.0308480263,719882
0,66,False,left,left,1.7502310276,719882
0,67,True,left,left,1.4464609623,719882
0,68,True,left,left,1.550896883,719882
0,69,True,right,right,0.9737968445,719882
0,70,False,right,left,1.0609099865,719882
0,71,False,right,right,0.8029530048,719882
0,72,False,left,left,0.668405056,719882
0,73,True,left,right,1.1283390522,719882
0,74,True,left,left,1.1805779934,719882
0,75,False,right,right,0.971902132,719882
0,76,False,right,right,0.7143650055,719882
0,77,True,left,right,1.0597629547,719882
0,78,False,right,right,1.2662789822,719882
0,79,True,left,left,1.1817579269,719882
0,80,False,left,left,0.8336591721,719882
0,81,False,right,right,0.6064069271,719882
0,82,False,left,left,0.9852919579,719882
0,83,True,left,left,0.9502439499,719882
0,84,False,left,right,1.3543350697,719882
0,85,False,right,right,0.6057949066,719882
0,86,True,right,right,0.9579558372,719882
0,87,True,left,right,1.2760128975,719882
0,88,False,left,left,1.161741972,719882
0,89,True,right,right,1.1889660358,719882
0,90,True,right,right,1.3420159817,719882
0,91,True,right,left,1.1067900658,719882
0,92,True,right,right,0.902755022,719882
0,93,False,right,left,0.9412410259,719882
0,94,False,left,left,0.6793560982,719882
0,95,False,right,right,0.6070158482,719882
0,96,False,right,right,0.7606921196,719882
0,97,True,left,left,0.9922661781,719882
0,98,False,left,right,0.8684239388,719882
0,99,False,left,right,0.834125042,719882
1,0,True,right,right,0.974809885,719882
1,1,False,right,right,1.1782150269,719882
1,2,False,left,right,0.8140130043,719882
1,3,True,right,right,0.7783529758,719882
1,4,True,right,right,1.0912008286,719882
1,5,False,left,left,0.7117648125,719882
1,6,False,left,left,0.8630042076,719882
1,7,False,left,left,0.8144490719,719882
1,8,False,left,left,0.8327000141,719882
1,9,False,left,right,0.7773771286,719882
1,10,True,right,left,1.3367981911,719882
1,11,True,left,left,1.1694121361,719882
1,12,True,right,right,0.8540120125,719882
1,13,False,left,left,0.6921207905,719882
1,14,False,right,right,0.6962740421,719882
1,15,True,left,left,1.1595330238,719882
1,16,True,left,right,1.3560049534,719882
1,17,False,right,right,0.9760429859,719882
1,18,False,left,left,0.8556859493,719882
1,19,False,right,right,0.6721220016,719882
1,20,True,right,right,0.8745429516,719882
1,21,False,left,left,0.7517309189,719882
1,22,False,left,right,0.7807180882,719882
1,23,True,right,right,0.9057779312,719882
1,24,True,right,right,1.0808448792,719882
1,25,True,left,left,0.8943119049,719882
1,26,True,left,left,1.3240220547,719882
1,27,False,right,right,0.7311627865,719882
1,28,True,left,left,1.1340548992,719882
1,29,False,left,left,1.3759901524,719882
1,30,True,left,left,1.2258141041,719882
1,31,False,right,right,0.530714035,719882
1,32,False,left,left,0.7176840305,719882
1,33,True,right,right,0.5961580276,719882
1,34,False,left,left,0.9285361767,719882
1,35,False,right,right,0.6652259827,719882
1,36,False,right,right,0.8917148113,719882
1,37,True,left,left,1.1448249817,719882
1,38,False,left,right,1.1393101215,719882
1,39,False,right,right,0.9019641876,719882
1,40,False,right,right,0.8484919071,719882
1,41,False,right,right,0.7812850475,719882
1,42,False,right,right,0.8349299431,719882
1,43,True,right,right,1.2482440472,719882
1,44,False,right,right,0.8076632023,719882
1,45,True,right,left,1.2679300308,719882
1,46,False,left,left,0.8323819637,719882
1,47,False,left,left,0.9678649902,719882
1,48,True,right,right,0.9591290951,719882
1,49,True,right,right,1.9246079922,719882
1,50,False,left,left,0.6058380604,719882
1,51,False,left,left,0.830080986,719882
1,52,False,left,left,0.8265938759,719882
1,53,False,left,left,0.8329150677,719882
1,54,True,right,right,0.8470249176,719882
1,55,True,left,left,1.1708340645,719882
1,56,True,right,left,1.5020251274,719882
1,57,True,right,right,0.9467539787,719882
1,58,False,right,right,0.8951489925,719882
1,59,True,left,left,0.8535120487,719882
1,60,False,right,right,0.5652480125,719882
1,61,True,left,left,1.0084969997,719882
1,62,False,left,right,1.1144480705,719882
1,63,False,right,right,0.7008280754,719882
1,64,False,right,right,0.6847400665,719882
1,65,False,left,left,0.6189110279,719882
1,66,False,right,right,0.6373360157,719882
1,67,False,right,left,0.840898037,719882
1,68,False,left,right,0.8741600513,719882
1,69,True,left,right,0.8584470749,719882
1,70,True,left,left,0.8214020729,719882
1,71,False,right,right,0.6554899216,719882
1,72,False,left,left,0.6853818893,719882
1,73,True,left,left,1.0859367847,719882
1,74,True,right,right,0.9661889076,719882
1,75,True,left,left,0.7508239746,719882
1,76,True,left,left,1.0372021198,719882
1,77,False,right,right,0.6775901318,719882
1,78,True,right,right,0.8658661842,719882
1,79,False,right,right,1.1297450066,719882
1,80,False,left,left,0.8183140755,719882
1,81,False,left,left,0.7496500015,719882
1,82,True,right,right,0.8506700993,719882
1,83,True,right,right,0.9661970139,719882
1,84,True,left,left,0.9939038754,719882
1,85,True,left,right,0.9012658596,719882
1,86,True,left,right,1.1784760952,719882
1,87,True,right,right,0.9214220047,719882
1,88,False,right,left,1.1679410934,719882
1,89,True,left,left,1.5292730331,719882
1,90,True,right,right,1.2105607986,719882
1,91,False,right,right,1.1184370518,719882
1,92,True,left,right,0.942471981,719882
1,93,False,right,right,0.5902659893,719882
1,94,True,right,right,0.9138388634,719882
1,95,False,left,left,0.8675038815,719882
1,96,True,right,right,0.8651270866,719882
1,97,True,left,left,1.224711895,719882
1,98,True,right,right,1.0427439213,719882
1,99,True,left,right,1.2790589333,719882
2,0,False,right,right,1.1805391312,719882
2,1,False,right,right,1.4035429955,719882
2,2,False,left,left,0.7646620274,719882
2,3,True,right,right,0.6329569817,719882
2,4,False,right,right,1.1107728481,719882
2,5,False,right,left,1.0107591152,719882
2,6,True,right,right,1.0839569569,719882
2,7,False,left,left,0.7716400623,719882
2,8,True,left,left,1.0317919254,719882
2,9,True,right,right,1.0089149475,719882
2,10,False,right,left,0.746199131,719882
2,11,False,left,right,0.7119150162,719882
2,12,True,left,left,0.9011111259,719882
2,13,True,left,left,1.1397259235,719882
2,14,True,left,right,1.3039720058,719882
2,15,True,left,left,1.3594679832,719882
2,16,True,left,left,1.1476948261,719882
2,17,True,left,left,1.2668840885,719882
2,18,True,left,right,1.2741668224,719882
2,19,False,right,right,0.6611759663,719882
2,20,True,left,right,1.0810890198,719882
2,21,False,left,left,0.8372859955,719882
2,22,False,right,right,0.691865921,719882
2,23,False,left,left,0.9004209042,719882
2,24,False,left,right,0.8516409397,719882
2,25,False,left,left,1.3924438953,719882
2,26,False,left,left,0.9357869625,719882
2,27,False,right,right,0.7184638977,719882
2,28,False,right,right,0.5969469547,719882
2,29,True,left,left,0.8802928925,719882
2,30,True,left,left,1.3611338139,719882
2,31,False,left,left,1.6426010132,719882
2,32,True,left,left,1.5004110336,719882
2,33,True,left,right,1.075083971,719882
2,34,True,left,left,1.1298680305,719882
2,35,True,right,right,0.983741045,719882
2,36,False,right,left,0.8942379951,719882
2,37,True,right,right,1.119328022,719882
2,38,True,right,right,0.9834630489,719882
2,39,False,left,left,0.8931679726,719882
2,40,False,right,right,0.7100410461,719882
2,41,True,left,left,0.9548969269,719882
2,42,False,left,left,0.9146430492,719882
2,43,True,right,right,0.9884810448,719882
2,44,True,left,left,1.2415239811,719882
2,45,True,right,right,1.1185019016,719882
2,46,True,left,left,1.4707400799,719882
2,47,False,right,right,0.6667129993,719882
2,48,True,right,right,1.1348199844,719882
2,49,False,left,left,1.2299509048,719882
2,50,True,left,left,1.1987659931,719882
2,51,False,left,left,0.8359348774,719882
2,52,False,right,right,0.9159801006,719882
2,53,False,right,right,0.6877818108,719882
2,54,False,right,right,0.6775290966,719882
2,55,False,right,left,1.1182439327,719882
2,56,False,left,left,0.9998109341,719882
2,57,True,right,right,1.0225019455,719882
2,58,True,right,right,1.1340918541,719882
2,59,False,left,left,0.7831878662,719882
2,60,False,right,right,0.642127037,719882
2,61,True,right,left,1.3057730198,719882
2,62,True,right,right,0.6435730457,719882
2,63,True,left,left,0.9516179562,719882
2,64,True,left,left,1.020606041,719882
2,65,False,right,right,1.0435180664,719882
2,66,True,right,right,1.2137949467,719882
2,67,True,left,left,1.3186872005,719882
2,68,False,left,left,1.7047190666,719882
2,69,True,right,right,0.9702248573,719882
2,70,True,right,right,1.297221899,719882
2,71,True,left,left,1.2289090157,719882
2,72,False,left,left,2.6246562004,719882
2,73,False,left,left,1.2572979927,719882
2,74,True,left,right,1.161449194,719882
2,75,False,right,right,0.7289991379,719882
2,76,False,left,left,1.0258829594,719882
2,77,False,right,right,0.6593968868,719882
2,78,True,right,left,1.0532400608,719882
2,79,True,right,right,0.7718930244,719882
2,80,True,right,right,0.9257237911,719882
2,81,False,right,left,1.3528599739,719882
2,82,True,right,right,0.799669981,719882
2,83,True,left,right,1.1727969646,719882
2,84,False,left,left,0.9550089836,719882
2,85,False,right,right,0.7413330078,719882
2,86,True,left,left,0.8896529675,719882
2,87,False,left,left,0.6297278404,719882
2,88,False,left,left,0.8312940598,719882
2,89,False,right,right,0.5932569504,719882
2,90,False,right,right,0.6702098846,719882
2,91,True,right,left,1.2257790565,719882
2,92,False,left,left,0.9597020149,719882
2,93,True,right,right,1.0141689777,719882
2,94,True,left,left,1.5627930164,719882
2,95,False,right,right,0.6880249977,719882
2,96,True,left,left,0.8102459908,719882
2,97,False,right,left,1.0182509422,719882
2,98,False,right,right,0.827819109,719882
2,99,True,right,left,1.0647959709,719882
3,0,False,left,right,1.8333499432,719882
3,1,True,left,right,1.2656841278,719882
3,2,True,left,left,1.0595920086,719882
3,3,True,left,right,0.7363488674,719882
3,4,True,left,left,0.997081995,719882
3,5,False,left,right,0.980191946,719882
3,6,False,left,left,0.9779670238,719882
3,7,False,left,left,0.7741119862,719882
3,8,True,right,right,0.6487760544,719882
3,9,True,right,right,0.8041539192,719882
3,10,False,right,right,0.9009819031,719882
3,11,False,left,left,0.8141422272,719882
3,12,False,left,left,0.8995521069,719882
3,13,True,left,left,0.9918529987,719882
3,14,False,left,left,1.3494369984,719882
3,15,False,right,right,0.5923919678,719882
3,16,True,left,left,1.0838549137,719882
3,17,False,left,right,0.9948348999,719882
3,18,True,right,right,0.9118621349,719882
3,19,False,left,left,0.7756271362,719882
3,20,True,right,right,0.9365589619,719882
3,21,False,right,right,0.8200399876,719882
3,22,False,left,left,1.1284418106,719882
3,23,False,left,right,1.4395799637,719882
3,24,True,left,left,1.0785751343,719882
3,25,True,left,left,1.2269039154,719882
3,26,True,left,left,1.3247931004,719882
3,27,False,left,right,0.8473789692,719882
3,28,False,right,right,0.7941081524,719882
3,29,True,right,right,0.7868139744,719882
3,30,False,right,right,1.2286469936,719882
3,31,False,right,right,0.797814846,719882
3,32,True,right,right,0.9551529884,719882
3,33,False,left,left,0.757488966,719882
3,34,True,left,left,1.1687781811,719882
3,35,True,right,right,0.9052419662,719882
3,36,True,right,right,0.9450831413,719882
3,37,True,left,left,1.088545084,719882
3,38,False,left,left,0.701679945,719882
3,39,True,right,right,0.7283160686,719882
3,40,True,right,right,0.740170002,719882
3,41,True,right,left,1.3408238888,719882
3,42,True,right,right,0.7390301228,719882
3,43,True,right,right,0.8111820221,719882
3,44,False,right,right,0.7687649727,719882
3,45,False,right,right,0.5844480991,719882
3,46,True,right,right,0.831195116,719882
3,47,False,right,right,0.6690280437,719882
3,48,False,left,left,0.9445860386,719882
3,49,False,left,right,0.7040729523,719882
3,50,True,left,left,0.9860289097,719882
3,51,False,right,right,0.8998739719,719882
3,52,False,left,left,0.8409738541,719882
3,53,True,left,left,1.0155308247,719882
3,54,True,left,left,1.2273440361,719882
3,55,False,left,left,0.9709498882,719882
3,56,True,right,right,1.0003550053,719882
3,57,True,right,right,0.9492928982,719882
3,58,True,left,left,0.9688978195,719882
3,59,False,right,right,0.7492818832,719882
3,60,True,left,left,1.1929960251,719882
3,61,True,left,right,0.8718650341,719882
3,62,True,right,right,0.9112920761,719882
3,63,True,right,right,0.9389328957,719882
3,64,False,right,right,0.8451609612,719882
3,65,True,right,right,1.2205638885,719882
3,66,True,left,left,0.9319210052,719882
3,67,True,right,right,0.9987180233,719882
3,68,False,right,right,0.7809808254,719882
3,69,False,left,left,1.0383419991,719882
3,70,False,right,right,0.945109129,719882
3,71,False,left,left,1.242898941,719882
3,72,False,right,right,0.6136410236,719882
3,73,False,right,right,0.719727993,719882
3,74,True,left,left,1.1189661026,719882
3,75,False,right,right,0.7742700577,719882
3,76,False,left,right,1.0532519817,719882
3,77,False,left,left,0.7516300678,719882
3,78,True,left,left,1.1168351173,719882
3,79,True,right,right,0.7119150162,719882
3,80,False,left,right,0.9978320599,719882
3,81,True,left,left,1.2347528934,719882
3,82,True,right,right,0.8191699982,719882
3,83,False,right,right,0.7926878929,719882
3,84,True,left,left,0.9477500916,719882
3,85,False,left,left,0.6302001476,719882
3,86,False,right,right,0.8270797729,719882
3,87,True,right,right,1.0788669586,719882
3,88,False,left,left,1.1307508945,719882
3,89,False,right,right,0.8039519787,719882
3,90,True,right,right,1.3093421459,719882
3,91,False,left,left,0.8795449734,719882
3,92,False,left,left,0.8245859146,719882
3,93,False,right,right,0.6500821114,719882
3,94,True,right,right,1.2584369183,719882
3,95,True,right,right,1.0696210861,719882
3,96,False,right,right,0.8165729046,719882
3,97,True,left,left,0.9211652279,719882
3,98,True,right,right,0.6983270645,719882
3,99,True,right,right,0.8800160885,719882
4,0,True,left,left,0.9796581268,719882
4,1,True,right,right,0.9914360046,719882
4,2,True,right,right,0.7949109077,719882
4,3,True,right,right,0.8064899445,719882
4,4,False,left,left,0.8480918407,719882
4,5,True,left,right,1.1905782223,719882
4,6,False,right,right,0.8117508888,719882
4,7,True,left,left,1.1886069775,719882
4,8,True,left,left,1.3668198586,719882
4,9,False,right,right,0.8008549213,719882
4,10,False,left,left,0.8031079769,719882
4,11,True,right,right,0.7402248383,719882
4,12,True,left,right,1.0144591331,719882
4,13,False,left,left,1.1407620907,719882
4,14,False,right,right,0.9221990108,719882
4,15,False,right,right,0.7209739685,719882
4,16,True,right,right,1.0003480911,719882
4,17,True,right,right,0.9815070629,719882
4,18,False,left,right,1.1936662197,719882
4,19,True,left,left,1.4331681728,719882
4,20,True,left,left,1.6954500675,719882
4,21,True,left,left,1.0285730362,719882
4,22,True,left,right,1.1002080441,719882
4,23,True,right,right,0.9242079258,719882
4,24,True,right,right,0.6978619099,719882
4,25,True,left,right,1.071228981,719882
4,26,True,left,left,0.9067099094,719882
4,27,True,right,right,0.7462308407,719882
4,28,True,right,right,0.8074650764,719882
4,29,True,left,right,1.2033529282,719882
4,30,False,left,left,0.8316059113,719882
4,31,True,right,right,0.8520188332,719882
4,32,True,right,left,1.3768618107,719882
4,33,True,right,right,0.7757489681,719882
4,34,False,left,left,0.8004469872,719882
4,35,False,right,right,0.7987160683,719882
4,36,True,right,right,0.9102950096,719882
4,37,False,right,right,0.8006238937,719882
4,38,False,right,right,0.81123209,719882
4,39,True,right,right,0.9924390316,719882
4,40,True,left,left,1.4853899479,719882
4,41,True,right,right,0.9677689075,719882
4,42,False,left,left,0.8813819885,719882
4,43,False,left,left,1.141217947,719882
4,44,False,left,left,1.3771879673,719882
4,45,False,right,right,0.8529129028,719882
4,46,True,right,right,0.9215037823,719882
4,47,True,right,right,1.1681861877,719882
4,48,False,left,left,0.8208298683,719882
4,49,False,left,left,0.9821019173,719882
4,50,False,right,right,0.8887760639,719882
4,51,False,right,right,0.6788671017,719882
4,52,True,left,left,1.1950919628,719882
4,53,True,right,right,0.6857180595,719882
4,54,True,left,left,0.9600720406,719882
4,55,True,right,right,1.0442681313,719882
4,56,False,right,right,0.729129076,719882
4,57,False,left,left,1.1729969978,719882
4,58,True,right,right,0.8447768688,719882
4,59,True,right,right,0.9543139935,719882
4,60,True,left,left,1.0149030685,719882
4,61,True,left,left,1.6779830456,719882
4,62,True,left,right,0.8703558445,719882
4,63,True,left,left,1.0254378319,719882
4,64,True,right,right,0.862651825,719882
4,65,True,right,right,0.7246990204,719882
4,66,False,left,left,0.721765995,719882
4,67,True,right,right,0.782638073,719882
4,68,True,right,right,0.813354969,719882
4,69,False,right,right,0.7414529324,719882
4,70,False,right,right,0.6526219845,719882
4,71,False,left,left,0.6566848755,719882
4,72,True,right,right,0.7891089916,719882
4,73,False,left,left,0.7632408142,719882
4,74,False,right,right,0.706510067,719882
4,75,False,right,right,0.7387630939,719882
4,76,True,right,left,0.9846510887,719882
4,77,False,left,left,0.7238612175,719882
4,78,True,left,left,1.1265070438,719882
4,79,False,left,left,1.220334053,719882
4,80,False,left,left,1.3236677647,719882
4,81,True,left,right,0.9986059666,719882
4,82,False,left,left,0.9580740929,719882
4,83,True,right,right,0.9718489647,719882
4,84,False,left,left,0.8880858421,719882
4,85,True,right,right,0.8512508869,719882
4,86,False,left,left,0.8826849461,719882
4,87,True,left,left,1.029916048,719882
4,88,True,left,left,1.0956149101,719882
4,89,True,right,right,0.8081560135,719882
4,90,True,right,right,0.9604160786,719882
4,91,False,left,left,0.9113512039,719882
4,92,False,left,left,0.9394807816,719882
4,93,True,right,right,1.0071001053,719882
4,94,True,left,left,1.1795461178,719882
4,95,True,left,right,1.1004440784,719882
4,96,False,left,left,0.8718008995,719882
4,97,True,right,right,0.8235049248,719882
4,98,True,right,right,0.9877178669,719882
4,99,False,left,left,0.7726309299,719882
5,0,False,right,right,1.1865100861,719882
5,1,True,left,right,1.2768559456,719882
5,2,False,right,right,0.8765459061,719882
5,3,True,right,right,1.2927441597,719882
5,4,True,right,right,1.0725131035,719882
5,5,True,left,left,0.7959060669,719882
5,6,False,right,right,0.7250339985,719882
5,7,False,left,left,1.498593092,719882
5,8,False,right,right,0.8389940262,719882
5,9,False,left,left,1.0624759197,719882
5,10,False,left,left,0.7285830975,719882
5,11,False,right,right,0.66456604,719882
5,12,False,left,right,0.9839441776,719882
5,13,True,right,right,1.054363966,719882
5,14,False,right,right,1.0141708851,719882
5,15,False,left,left,0.7519462109,719882
5,16,True,left,right,1.0824840069,719882
5,17,True,right,right,1.2019751072,719882
5,18,True,right,left,1.1343290806,719882
5,19,False,right,left,0.8914349079,719882
5,20,True,right,right,0.9761059284,719882
5,21,True,right,right,1.1482980251,719882
5,22,True,left,left,1.0166490078,719882
5,23,True,right,right,0.9501349926,719882
5,24,True,right,right,0.9397361279,719882
5,25,True,left,left,0.8675689697,719882
5,26,False,right,left,1.0645289421,719882
5,27,True,right,right,0.8708930016,719882
5,28,True,left,right,1.0736532211,719882
5,29,True,left,right,1.03064394,719882
5,30,False,right,right,0.7160129547,719882
5,31,True,left,left,0.8326590061,719882
5,32,True,left,right,1.1642849445,719882
5,33,True,left,right,0.9700419903,719882
5,34,True,right,right,0.8148291111,719882
5,35,True,right,right,1.1474819183,719882
5,36,False,left,left,1.059360981,719882
5,37,False,right,right,0.7505459785,719882
5,38,True,left,left,1.2963619232,719882
5,39,False,right,right,0.8106930256,719882
5,40,True,left,left,1.1254210472,719882
5,41,False,left,left,0.9624772072,719882
5,42,False,right,right,0.6957099438,719882
5,43,False,left,left,0.6979029179,719882
5,44,False,left,right,0.8442339897,719882
5,45,True,left,left,1.0534999371,719882
5,46,False,left,right,0.9926450253,719882
5,47,True,right,right,1.0553069115,719882
5,48,True,right,right,0.9503359795,719882
5,49,True,right,left,1.476375103,719882
5,50,False,right,right,0.8617749214,719882
5,51,True,left,right,1.5665609837,719882
5,52,True,left,left,1.0911941528,719882
5,53,True,left,left,0.9935839176,719882
5,54,True,right,right,0.8540561199,719882
5,55,True,right,right,1.029872179,719882
5,56,True,left,left,0.862528801,719882
5,57,False,right,right,0.8718090057,719882
5,58,True,left,left,0.9909350872,719882
5,59,False,left,right,0.8559861183,719882
5,60,False,left,left,1.056137085,719882
5,61,True,right,right,1.0431761742,719882
5,62,True,right,right,0.8234100342,719882
5,63,False,right,right,0.7754118443,719882
5,64,False,left,left,1.0867490768,719882
5,65,True,left,right,1.1518540382,719882
5,66,True,right,right,0.853623867,719882
5,67,False,right,left,1.0715069771,719882
5,68,False,right,right,0.6491761208,719882
5,69,False,left,left,0.8304889202,719882
5,70,True,right,right,0.7501399517,719882
5,71,True,right,right,0.8995389938,719882
5,72,False,right,right,0.7199218273,719882
5,73,True,right,right,1.0310428143,719882
5,74,True,left,left,0.8866119385,719882
5,75,True,left,left,0.9566349983,719882
5,76,True,right,right,0.7354180813,719882
5,77,True,left,left,0.8347961903,719882
5,78,True,right,right,0.920953989,719882
5,79,False,left,left,0.7993137836,719882
5,80,True,left,right,0.9930770397,719882
5,81,True,left,left,0.8386068344,719882
5,82,False,right,right,0.6472628117,719882
5,83,False,right,right,1.0014140606,719882
5,84,True,left,left,1.0219421387,719882
5,85,False,left,right,1.1740739346,719882
5,86,True,left,left,1.2578060627,719882
5,87,False,left,right,1.0848898888,719882
5,88,True,left,right,1.1963591576,719882
5,89,True,left,left,1.3699548244,719882
5,90,False,right,right,0.6572389603,719882
5,91,True,right,right,1.156867981,719882
5,92,False,right,right,0.8377239704,719882
5,93,False,left,right,0.8703789711,719882
5,94,False,right,right,0.9783461094,719882
5,95,False,left,right,1.1032149792,719882
5,96,True,left,left,1.0817711353,719882
5,97,False,left,left,1.0422577858,719882
5,98,False,left,left,1.0034430027,719882
5,99,True,right,right,0.8629128933,719882
6,0,False,right,right,1.4227659702,719882
6,1,False,left,left,1.0077729225,719882
6,2,False,left,right,0.7072041035,719882
6,3,False,right,right,0.7051270008,719882
6,4,True,left,left,0.7903478146,719882
6,5,True,left,right,0.8551409245,719882
6,6,False,right,right,0.7746169567,719882
6,7,False,left,right,1.2739140987,719882
6,8,False,right,right,0.9077179432,719882
6,9,True,left,left,0.8799989223,719882
6,10,False,left,right,0.831619978,719882
6,11,False,left,left,0.8838188648,719882
6,12,True,left,right,1.3587510586,719882
6,13,True,left,left,1.2015900612,719882
6,14,True,right,right,0.7606780529,719882
6,15,False,right,right,0.7273612022,719882
6,16,True,left,left,0.8775210381,719882
6,17,False,left,right,1.2161560059,719882
6,18,True,left,right,1.0021541119,719882
6,19,True,left,right,1.3220369816,719882
6,20,True,left,right,1.1179349422,719882
6,21,True,right,right,0.9441199303,719882
6,22,False,right,right,1.0376448631,719882
6,23,False,right,right,0.9496719837,719882
6,24,True,right,left,1.0574350357,719882
6,25,True,left,right,1.4379169941,719882
6,26,False,left,left,0.9361169338,719882
6,27,False,right,right,0.7903738022,719882
6,28,True,right,right,0.7671120167,719882
6,29,True,right,right,0.9253251553,719882
6,30,False,left,left,0.7609570026,719882
6,31,False,right,right,0.6123929024,719882
6,32,False,right,right,0.7905781269,719882
6,33,False,right,right,1.0985579491,719882
6,34,False,right,right,0.8014938831,719882
6,35,False,right,right,0.7108018398,719882
6,36,False,left,right,0.7153189182,719882
6,37,False,right,right,0.7348639965,719882
6,38,True,right,right,0.9646668434,719882
6,39,True,left,left,0.9976370335,719882
6,40,False,right,right,0.7946710587,719882
6,41,False,left,right,0.9432590008,719882
6,42,False,left,left,0.7827978134,719882
6,43,False,left,right,0.6078457832,719882
6,44,False,left,left,0.891422987,719882
6,45,False,left,right,0.8604550362,719882
6,46,True,left,left,1.1795167923,719882
6,47,True,right,right,0.7737839222,719882
6,48,True,right,right,1.0136520863,719882
6,49,False,left,left,0.9800050259,719882
6,50,False,left,right,0.975992918,719882
6,51,True,left,left,1.0644228458,719882
6,52,False,right,right,0.6906630993,719882
6,53,False,left,right,0.7504301071,719882
6,54,False,right,right,1.1622757912,719882
6,55,False,left,right,0.9328949451,719882
6,56,True,right,right,1.0879080296,719882
6,57,True,left,left,0.9268200397,719882
6,58,True,left,left,1.1857841015,719882
6,59,False,left,left,0.9084429741,719882
6,60,True,right,right,0.8717360497,719882
6,61,True,right,right,1.1083381176,719882
6,62,False,right,right,0.7112510204,719882
6,63,False,left,left,0.6846411228,719882
6,64,True,right,right,1.096832037,719882
6,65,False,left,left,0.7261199951,719882
6,66,False,right,right,0.6135618687,719882
6,67,True,left,left,1.1594028473,719882
6,68,True,right,right,0.8984630108,719882
6,69,True,left,left,1.1187860966,719882
6,70,False,right,right,0.6578710079,719882
6,71,True,left,left,1.3207669258,719882
6,72,True,left,left,1.4581670761,719882
6,73,True,right,right,1.1416628361,719882
6,74,True,right,right,0.8647019863,719882
6,75,False,left,left,0.8975000381,719882
6,76,False,right,right,0.8268539906,719882
6,77,True,right,right,0.7556231022,719882
6,78,False,right,right,0.8111290932,719882
6,79,False,left,left,0.9357349873,719882
6,80,False,left,left,0.9548530579,719882
6,81,False,right,right,0.6700878143,719882
6,82,False,left,left,0.8572399616,719882
6,83,False,right,right,0.7208731174,719882
6,84,True,right,right,0.8530919552,719882
6,85,False,left,left,1.043448925,719882
6,86,True,right,right,0.8437099457,719882
6,87,False,left,left,1.1424689293,719882
6,88,True,left,left,1.1286489964,719882
6,89,True,right,right,0.9910750389,719882
6,90,True,right,right,1.1407439709,719882
6,91,False,right,left,1.1413681507,719882
6,92,True,right,right,0.9360671043,719882
6,93,True,left,left,0.917375803,719882
6,94,False,right,right,0.5895588398,719882
6,95,True,right,right,1.0733120441,719882
6,96,False,left,left,0.8135809898,719882
6,97,True,left,left,1.0822579861,719882
6,98,False,right,right,1.0354268551,719882
6,99,False,right,right,0.9220590591,719882
7,0,True,right,right,1.1735138893,719882
7,1,True,right,right,0.7937750816,719882
7,2,False,right,left,1.3681221008,719882
7,3,True,right,right,0.926828146,719882
7,4,True,right,left,1.4947040081,719882
7,5,False,right,right,1.1188440323,719882
7,6,True,right,right,0.9469571114,719882
7,7,True,right,right,1.0494859219,719882
7,8,True,left,left,1.0997819901,719882
7,9,False,right,right,0.9342720509,719882
7,10,True,right,right,0.9286389351,719882
7,11,True,left,left,0.8197138309,719882
7,12,False,left,left,1.0753850937,719882
7,13,False,left,left,1.0869851112,719882
7,14,False,left,left,1.340667963,719882
7,15,False,right,right,0.766343832,719882
7,16,False,right,right,0.8131709099,719882
7,17,True,right,right,0.7394750118,719882
7,18,True,left,left,0.9989619255,719882
7,19,True,right,right,1.3786759377,719882
7,20,True,right,right,0.8010210991,719882
7,21,False,left,left,0.847784996,719882
7,22,False,right,right,0.7996280193,719882
7,23,False,left,left,0.7033851147,719882
7,24,True,left,left,0.902023077,719882
7,25,False,right,right,0.7378520966,719882
7,26,False,left,left,0.8748731613,719882
7,27,False,right,right,0.9434878826,719882
7,28,False,left,left,1.1261041164,719882
7,29,True,right,right,0.9026100636,719882
7,30,True,right,right,1.1528658867,719882
7,31,True,right,right,1.0380079746,719882
7,32,True,left,left,0.8482480049,719882
7,33,True,right,right,0.8953800201,719882
7,34,True,right,right,1.3853080273,719882
7,35,True,left,left,0.6454870701,719882
7,36,False,left,left,1.2116560936,719882
7,37,True,left,left,1.1383869648,719882
7,38,True,left,left,1.0776369572,719882
7,39,True,right,right,1.1249392033,719882
7,40,False,left,left,0.8229959011,719882
7,41,False,left,right,0.8535990715,719882
7,42,True,right,right,0.8043239117,719882
7,43,False,left,left,0.9056718349,719882
7,44,True,left,left,1.2663249969,719882
7,45,False,right,right,0.9118149281,719882
7,46,False,left,right,0.9833099842,719882
7,47,True,left,right,1.3044741154,719882
7,48,True,right,right,0.7783288956,719882
7,49,True,left,left,0.8417110443,719882
7,50,True,right,right,1.0223491192,719882
7,51,False,right,right,0.6342101097,719882
7,52,True,right,right,0.8698148727,719882
7,53,True,left,right,1.434748888,719882
7,54,False,right,left,1.0951690674,719882
7,55,False,right,right,0.6047048569,719882
7,56,True,right,right,0.789411068,719882
7,57,False,right,right,0.6917130947,719882
7,58,True,left,left,1.2978289127,719882
7,59,False,left,right,0.9056990147,719882
7,60,False,left,left,1.1907281876,719882
7,61,False,right,right,0.6972279549,719882
7,62,False,left,left,1.1715559959,719882
7,63,True,left,left,1.0944130421,719882
7,64,False,left,right,1.3410480022,719882
7,65,True,left,left,1.1669139862,719882
7,66,True,left,right,1.1865048409,719882
7,67,False,left,left,0.9082520008,719882
7,68,True,left,left,1.1923189163,719882
7,69,False,right,right,0.7046608925,719882
7,70,True,left,right,0.9966001511,719882
7,71,True,left,left,1.0004141331,719882
7,72,True,left,right,0.9863190651,719882
7,73,False,left,left,0.8614840508,719882
7,74,True,right,right,0.9776198864,719882
7,75,False,left,right,1.0714681149,719882
7,76,False,left,left,0.8017110825,719882
7,77,True,right,right,0.8725280762,719882
7,78,True,right,right,0.9531719685,719882
7,79,False,right,right,0.810945034,719882
7,80,False,right,right,0.7954061031,719882
7,81,True,right,right,0.9769248962,719882
7,82,True,right,right,0.9332280159,719882
7,83,True,left,left,1.4341380596,719882
7,84,False,right,right,0.7699439526,719882
7,85,True,left,right,1.1833131313,719882
7,86,False,left,left,0.9287149906,719882
7,87,False,left,left,1.5175900459,719882
7,88,True,right,right,1.0009319782,719882
7,89,False,right,right,0.7205169201,719882
7,90,True,right,left,1.5443937778,719882
7,91,True,right,right,1.1249620914,719882
7,92,True,left,right,1.0765631199,719882
7,93,True,left,left,1.3094820976,719882
7,94,True,left,left,1.2990009785,719882
7,95,False,right,right,0.9374969006,719882
7,96,False,left,left,1.0681488514,719882
7,97,True,left,right,1.5253310204,719882
7,98,True,left,right,1.1480140686,719882
7,99,False,right,left,0.9924800396,719882
8,0,True,right,right,1.5454878807,719882
8,1,False,right,right,1.1265311241,719882
8,2,False,right,right,1.1321349144,719882
8,3,False,right,right,0.9298889637,719882
8,4,False,left,right,1.0233840942,719882
8,5,True,right,right,0.8330049515,719882
8,6,True,left,left,1.0122320652,719882
8,7,True,right,right,1.0982460976,719882
8,8,True,left,left,1.6019630432,719882
8,9,False,left,left,3.5623288155,719882
8,10,True,left,left,0.9531970024,719882
8,11,True,left,left,0.8760809898,719882
8,12,True,right,right,0.7245950699,719882
8,13,False,right,right,1.035643816,719882
8,14,False,left,right,1.2005448341,719882
8,15,False,right,right,0.9399979115,719882
8,16,False,right,right,0.8941149712,719882
8,17,True,right,right,0.7584068775,719882
8,18,False,right,right,0.8839240074,719882
8,19,True,right,right,0.8381750584,719882
8,20,False,left,left,0.6740140915,719882
8,21,True,right,right,0.8032770157,719882
8,22,False,left,left,0.8225238323,719882
8,23,False,right,right,1.6715269089,719882
8,24,True,right,right,1.0389640331,719882
8,25,True,left,left,1.3041749001,719882
8,26,False,right,right,0.6097669601,719882
8,27,False,left,left,0.6417050362,719882
8,28,True,right,right,0.7697851658,719882
8,29,False,left,left,0.6204588413,719882
8,30,True,left,left,1.2510659695,719882
8,31,True,right,right,0.9748139381,719882
8,32,True,left,left,1.2386729717,719882
8,33,True,left,left,1.2701668739,719882
8,34,True,right,right,1.2573640347,719882
8,35,False,left,left,0.8362369537,719882
8,36,False,left,left,1.0404679775,719882
8,37,False,left,left,0.9515500069,719882
8,38,False,right,right,0.8556818962,719882
8,39,True,right,right,1.1325531006,719882
8,40,True,right,right,0.9673609734,719882
8,41,False,right,right,0.7848529816,719882
8,42,False,left,right,1.2144730091,719882
8,43,True,right,right,1.0404508114,719882
8,44,False,right,right,1.1922690868,719882
8,45,False,right,right,0.7869119644,719882
8,46,False,right,right,0.8417370319,719882
8,47,False,right,right,0.8836088181,719882
8,48,True,right,right,0.9304859638,719882
8,49,False,right,right,0.8719818592,719882
8,50,True,left,left,1.1041970253,719882
8,51,True,left,right,1.064330101,719882
8,52,True,right,right,0.799612999,719882
8,53,True,left,left,1.0389909744,719882
8,54,False,left,right,1.0795030594,719882
8,55,False,left,left,1.4802479744,719882
8,56,False,right,right,0.7478809357,719882
8,57,False,right,right,0.7350301743,719882
8,58,False,left,right,1.2993590832,719882
8,59,True,right,right,0.9497411251,719882
8,60,False,left,left,1.5353369713,719882
8,61,False,left,right,0.9503970146,719882
8,62,True,left,left,1.2181332111,719882
8,63,True,left,left,1.0721480846,719882
8,64,False,left,left,0.9383480549,719882
8,65,True,right,right,1.0510339737,719882
8,66,False,left,left,1.0746080875,719882
8,67,True,right,right,0.9780249596,719882
8,68,True,right,right,0.9333381653,719882
8,69,False,left,left,0.8617479801,719882
8,70,False,left,right,0.8179571629,719882
8,71,False,left,left,0.9555089474,719882
8,72,True,right,right,1.1778481007,719882
8,73,True,left,left,1.3301758766,719882
8,74,True,right,right,0.9510188103,719882
8,75,False,left,left,0.8843488693,719882
8,76,False,right,right,0.8044281006,719882
8,77,True,left,left,1.3106019497,719882
8,78,True,right,right,0.8658750057,719882
8,79,True,right,right,0.7266850471,719882
8,80,False,right,right,0.7195668221,719882
8,81,True,right,right,1.0159840584,719882
8,82,False,left,left,0.8495938778,719882
8,83,True,left,left,1.2114260197,719882
8,84,False,right,right,0.6294100285,719882
8,85,True,left,left,0.957985878,719882
8,86,True,right,right,0.9913640022,719882
8,87,False,left,left,1.0306451321,719882
8,88,False,left,left,0.9338970184,719882
8,89,False,left,left,0.9772639275,719882
8,90,True,right,right,0.786741972,719882
8,91,True,right,right,0.8436589241,719882
8,92,True,left,left,1.0720360279,719882
8,93,True,left,left,1.0461750031,719882
8,94,False,left,left,1.0039019585,719882
8,95,True,left,left,1.4938468933,719882
8,96,False,left,right,1.228374958,719882
8,97,False,left,right,0.897881031,719882
8,98,True,right,right,0.747410059,719882
8,99,False,left,left,0.8458650112,719882
9,0,True,right,right,1.1034970284,719882
9,1,False,right,right,0.7283978462,719882
9,2,False,right,right,0.898252964,719882
9,3,True,left,left,1.1938769817,719882
9,4,False,left,left,0.8279030323,719882
9,5,False,left,left,0.7959868908,719882
9,6,True,right,right,0.7186689377,719882
9,7,True,left,left,0.7632648945,719882
9,8,True,left,left,1.1312940121,719882
9,9,True,right,right,0.7027208805,719882
9,10,True,right,right,0.6646549702,719882
9,11,True,right,right,0.7271089554,719882
9,12,False,right,right,0.7086520195,719882
9,13,False,left,left,0.7536959648,719882
9,14,True,right,right,0.950040102,719882
9,15,False,right,right,0.8564550877,719882
9,16,False,left,left,1.2119820118,719882
9,17,True,right,right,1.2087900639,719882
9,18,True,right,right,1.1831300259,719882
9,19,True,right,left,1.4962849617,719882
9,20,False,right,right,0.8984107971,719882
9,21,True,left,left,1.1132338047,719882
9,22,True,right,right,0.8212561607,719882
9,23,True,left,left,1.5196158886,719882
9,24,False,right,right,0.9545748234,719882
9,25,False,left,left,1.6276171207,719882
9,26,False,right,right,0.7766969204,719882
9,27,False,left,left,0.9018440247,719882
9,28,True,right,right,0.8814530373,719882
9,29,False,left,left,0.984292984,719882
9,30,False,right,right,0.7341659069,719882
9,31,True,left,left,0.9427750111,719882
9,32,False,left,left,1.444368124,719882
9,33,True,left,left,1.1524269581,719882
9,34,False,left,right,0.9697029591,719882
9,35,False,left,left,0.9872760773,719882
9,36,True,left,left,1.0417621136,719882
9,37,False,right,right,0.8043758869,719882
9,38,False,right,right,0.8722250462,719882
9,39,True,left,left,0.9920318127,719882
9,40,True,left,right,1.3334560394,719882
9,41,True,right,right,0.804569006,719882
9,42,True,left,left,1.1314489841,719882
9,43,False,left,left,1.0033810139,719882
9,44,False,left,right,0.9191281796,719882
9,45,False,left,right,0.9962191582,719882
9,46,False,left,left,0.6786100864,719882
9,47,True,right,right,0.9607717991,719882
9,48,False,left,left,0.7481768131,719882
9,49,False,right,right,0.7133080959,719882
9,50,False,right,right,0.6482520103,719882
9,51,True,left,left,1.2111461163,719882
9,52,True,right,right,0.88154006,719882
9,53,False,left,left,1.1264050007,719882
9,54,True,right,right,1.0479679108,719882
9,55,True,left,right,1.0930581093,719882
9,56,True,right,right,1.0023260117,719882
9,57,False,left,left,1.0915849209,719882
9,58,True,right,right,1.0303869247,719882
9,59,False,left,left,0.7203469276,719882
9,60,False,right,right,0.7163510323,719882
9,61,True,right,right,0.8774268627,719882
9,62,True,left,left,1.7953119278,719882
9,63,False,right,left,0.9268410206,719882
9,64,False,right,right,1.2544178963,719882
9,65,True,right,right,0.8963699341,719882
9,66,True,right,right,0.6995811462,719882
9,67,False,right,right,0.6245658398,719882
9,68,True,right,right,0.9931361675,719882
9,69,False,left,left,0.8797399998,719882
9,70,False,left,right,1.4157469273,719882
9,71,False,left,left,0.9679851532,719882
9,72,True,right,right,0.7564659119,719882
9,73,False,right,right,0.673484087,719882
9,74,False,right,right,0.5893809795,719882
9,75,False,left,left,0.8846001625,719882
9,76,True,right,right,0.8294839859,719882
9,77,False,left,left,0.809319973,719882
9,78,False,left,right,0.9330120087,719882
9,79,True,left,left,1.157145977,719882
9,80,True,right,right,0.7134320736,719882
9,81,False,left,left,1.1498560905,719882
9,82,True,left,left,0.8853960037,719882
9,83,False,left,right,0.9206581116,719882
9,84,False,left,left,0.9002039433,719882
9,85,True,left,left,1.2198569775,719882
9,86,False,left,right,0.9000189304,719882
9,87,False,right,right,0.6029698849,719882
9,88,True,left,left,1.0810580254,719882
9,89,True,right,right,0.7311809063,719882
9,90,False,right,right,0.6707730293,719882
9,91,False,right,right,0.7747349739,719882
9,92,False,right,right,0.6500730515,719882
9,93,False,right,right,0.6493420601,719882
9,94,True,left,left,0.7649781704,719882
9,95,True,right,right,0.676115036,719882
9,96,False,right,right,0.9125030041,719882
9,97,False,left,left,0.8085749149,719882
9,98,False,left,right,0.9272971153,719882
9,99,False,left,left,0.884308815,719882
