block,trial,s1_state,direction,response,rt,pair,
0,0,True,right,left,1.3204500675201416,812810,
0,1,True,left,left,0.7397029399871826,812810,
0,2,True,left,left,0.811959981918335,812810,
0,3,False,left,left,0.7403810024261475,812810,
0,4,True,left,left,1.1912000179290771,812810,
0,5,True,right,right,1.0990548133850098,812810,
0,6,False,right,left,0.6127848625183105,812810,
0,7,True,left,right,1.5183639526367188,812810,
0,8,False,left,right,0.5859260559082031,812810,
0,9,False,left,right,0.7379090785980225,812810,
0,10,True,left,left,0.7612018585205078,812810,
0,11,False,right,right,0.9194509983062744,812810,
0,12,False,left,left,0.5887129306793213,812810,
0,13,False,left,left,0.633026123046875,812810,
0,14,True,right,right,0.9894490242004395,812810,
0,15,False,left,left,0.5737481117248535,812810,
0,16,True,left,left,1.0708839893341064,812810,
0,17,True,right,right,0.726599931716919,812810,
0,18,False,right,left,0.46309494972229004,812810,
0,19,False,right,right,0.6341960430145264,812810,
0,20,False,right,right,0.8045709133148193,812810,
0,21,True,right,right,0.9755971431732178,812810,
0,22,True,left,left,0.8992140293121338,812810,
0,23,True,left,left,0.7415339946746826,812810,
0,24,True,right,right,0.9494118690490723,812810,
0,25,True,right,right,1.1022100448608398,812810,
0,26,True,left,left,0.6547379493713379,812810,
0,27,True,right,right,0.6265029907226562,812810,
0,28,True,right,left,0.8720030784606934,812810,
0,29,True,right,right,1.5918309688568115,812810,
0,30,True,right,left,0.6479649543762207,812810,
0,31,True,right,left,0.7129909992218018,812810,
0,32,False,right,left,0.8730430603027344,812810,
0,33,False,right,right,0.6509361267089844,812810,
0,34,True,left,left,0.5470850467681885,812810,
0,35,True,left,left,0.682905912399292,812810,
0,36,False,left,right,1.1489369869232178,812810,
0,37,False,right,right,0.5950918197631836,812810,
0,38,True,right,right,1.158992052078247,812810,
0,39,True,left,left,0.7160568237304688,812810,
0,40,True,left,left,1.0887999534606934,812810,
0,41,False,left,left,0.5519318580627441,812810,
0,42,False,left,right,1.1521518230438232,812810,
0,43,True,left,left,0.6949639320373535,812810,
0,44,True,right,right,0.5669429302215576,812810,
0,45,False,left,left,0.7805030345916748,812810,
0,46,False,right,right,0.5295760631561279,812810,
0,47,False,left,left,1.4049930572509766,812810,
0,48,True,left,right,1.2047970294952393,812810,
0,49,False,left,right,1.0308539867401123,812810,
0,50,True,right,right,0.870629072189331,812810,
0,51,True,left,left,0.7844259738922119,812810,
0,52,True,left,left,1.1649229526519775,812810,
0,53,True,right,right,0.7095770835876465,812810,
0,54,True,left,left,0.7006220817565918,812810,
0,55,True,right,right,0.6717808246612549,812810,
0,56,True,left,left,0.6759128570556641,812810,
0,57,True,right,left,0.7994811534881592,812810,
0,58,True,right,right,1.582862138748169,812810,
0,59,True,left,left,0.4624969959259033,812810,
0,60,False,left,left,1.114253044128418,812810,
0,61,True,left,left,1.8125460147857666,812810,
0,62,True,right,right,0.6724879741668701,812810,
0,63,False,right,right,0.7943909168243408,812810,
0,64,False,right,right,0.6486399173736572,812810,
0,65,True,right,left,0.6703810691833496,812810,
0,66,True,left,left,0.7880549430847168,812810,
0,67,False,left,left,1.3567709922790527,812810,
0,68,False,right,right,0.9226582050323486,812810,
0,69,False,right,right,0.5783500671386719,812810,
0,70,False,left,left,0.9485669136047363,812810,
0,71,True,left,right,1.2375118732452393,812810,
0,72,True,right,right,0.693422794342041,812810,
0,73,True,left,left,0.6337709426879883,812810,
0,74,False,left,left,1.1043269634246826,812810,
0,75,False,right,right,0.77146315574646,812810,
0,76,True,left,right,0.9910910129547119,812810,
0,77,False,right,right,0.5940489768981934,812810,
0,78,False,right,right,0.7037928104400635,812810,
0,79,False,right,left,0.9781391620635986,812810,
0,80,True,left,left,0.779608964920044,812810,
0,81,True,right,right,0.6137731075286865,812810,
0,82,False,left,left,0.5302901268005371,812810,
0,83,False,right,right,0.5294620990753174,812810,
0,84,False,right,left,0.7433199882507324,812810,
0,85,False,left,left,1.2789039611816406,812810,
0,86,True,left,right,1.1057870388031006,812810,
0,87,False,left,right,0.8833639621734619,812810,
0,88,False,left,left,1.1968629360198975,812810,
0,89,False,right,right,0.879702091217041,812810,
0,90,False,right,left,0.7418651580810547,812810,
0,91,False,left,left,0.7956669330596924,812810,
0,92,False,right,right,0.5841009616851807,812810,
0,93,False,right,left,0.6571619510650635,812810,
0,94,True,right,right,1.0242969989776611,812810,
0,95,False,left,left,0.6348450183868408,812810,
0,96,False,left,left,0.7200698852539062,812810,
0,97,False,right,right,0.7461390495300293,812810,
0,98,False,right,left,0.6077671051025391,812810,
0,99,False,right,right,0.6222400665283203,812810,
1,0,True,left,left,1.3338580131530762,812810,
1,1,True,right,right,0.523979902267456,812810,
1,2,False,left,left,0.7787091732025146,812810,
1,3,True,right,left,0.8499751091003418,812810,
1,4,True,right,right,1.0448248386383057,812810,
1,5,False,left,left,0.6205451488494873,812810,
1,6,True,left,left,0.7763090133666992,812810,
1,7,True,left,left,0.7351248264312744,812810,
1,8,True,left,left,1.0477969646453857,812810,
1,9,False,left,left,0.8172659873962402,812810,
1,10,False,left,right,1.1700780391693115,812810,
1,11,False,right,right,0.6800870895385742,812810,
1,12,True,left,right,0.8039789199829102,812810,
1,13,False,right,right,0.5144391059875488,812810,
1,14,True,left,left,0.6651289463043213,812810,
1,15,False,left,left,0.8220009803771973,812810,
1,16,False,right,right,0.5335450172424316,812810,
1,17,False,right,right,0.49965906143188477,812810,
1,18,False,left,left,1.0576210021972656,812810,
1,19,True,right,right,0.9996771812438965,812810,
1,20,False,left,left,0.7064549922943115,812810,
1,21,True,left,left,0.8102691173553467,812810,
1,22,False,right,right,0.5009851455688477,812810,
1,23,True,right,right,0.8331451416015625,812810,
1,24,False,right,left,0.5377631187438965,812810,
1,25,False,left,left,0.6791648864746094,812810,
1,26,False,right,right,1.039031982421875,812810,
1,27,False,left,left,0.5999200344085693,812810,
1,28,False,left,left,1.0086250305175781,812810,
1,29,False,right,right,0.5428521633148193,812810,
1,30,True,left,right,0.7435660362243652,812810,
1,31,False,left,left,0.5658390522003174,812810,
1,32,True,right,right,0.8056421279907227,812810,
1,33,False,left,right,0.7541630268096924,812810,
1,34,False,left,left,1.0289201736450195,812810,
1,35,False,left,left,0.6835930347442627,812810,
1,36,False,right,right,0.5949890613555908,812810,
1,37,False,left,left,0.550929069519043,812810,
1,38,True,left,right,0.7212541103363037,812810,
1,39,False,right,right,0.4461841583251953,812810,
1,40,True,left,left,0.7982540130615234,812810,
1,41,False,right,right,0.5154519081115723,812810,
1,42,False,left,left,0.4530670642852783,812810,
1,43,False,left,left,0.47292494773864746,812810,
1,44,False,left,left,0.839972972869873,812810,
1,45,True,right,right,0.6656570434570312,812810,
1,46,False,right,right,1.023982048034668,812810,
1,47,True,left,left,0.5780000686645508,812810,
1,48,False,right,right,0.6955740451812744,812810,
1,49,False,left,left,0.7611570358276367,812810,
1,50,False,right,right,0.9293560981750488,812810,
1,51,False,left,left,0.5625309944152832,812810,
1,52,False,right,right,0.4844329357147217,812810,
1,53,True,left,left,0.6876509189605713,812810,
1,54,False,right,right,0.6079831123352051,812810,
1,55,False,left,left,0.7580969333648682,812810,
1,56,False,left,right,0.7006042003631592,812810,
1,57,True,left,left,0.7561111450195312,812810,
1,58,True,right,right,0.5840528011322021,812810,
1,59,True,right,right,1.1056749820709229,812810,
1,60,True,right,left,0.8636291027069092,812810,
1,61,False,right,right,1.5273840427398682,812810,
1,62,False,left,left,1.3903720378875732,812810,
1,63,True,right,right,0.7654669284820557,812810,
1,64,False,left,left,0.7362818717956543,812810,
1,65,False,right,right,0.48549509048461914,812810,
1,66,True,left,left,0.4799950122833252,812810,
1,67,False,right,right,0.5657360553741455,812810,
1,68,False,right,right,1.0295751094818115,812810,
1,69,True,right,right,0.8183801174163818,812810,
1,70,True,right,left,0.5786609649658203,812810,
1,71,True,right,right,0.7479469776153564,812810,
1,72,True,right,right,0.527756929397583,812810,
1,73,True,right,right,1.083035945892334,812810,
1,74,True,left,left,0.7058031558990479,812810,
1,75,True,left,left,0.9608168601989746,812810,
1,76,True,right,right,0.6089949607849121,812810,
1,77,True,right,right,0.5127301216125488,812810,
1,78,False,left,left,0.5748090744018555,812810,
1,79,False,left,right,0.5608561038970947,812810,
1,80,True,left,left,0.7641270160675049,812810,
1,81,True,left,left,0.6096048355102539,812810,
1,82,False,right,right,1.0265800952911377,812810,
1,83,False,right,right,0.6187319755554199,812810,
1,84,False,right,left,0.7318041324615479,812810,
1,85,False,right,right,0.7834069728851318,812810,
1,86,False,left,left,0.5642871856689453,812810,
1,87,True,right,right,0.6203920841217041,812810,
1,88,False,right,left,3.6327261924743652,812810,
1,89,True,right,right,1.0559399127960205,812810,
1,90,False,left,left,0.759119987487793,812810,
1,91,True,right,right,0.8082568645477295,812810,
1,92,False,right,right,1.9067471027374268,812810,
1,93,True,left,left,0.7288191318511963,812810,
1,94,False,right,right,0.7469761371612549,812810,
1,95,True,left,left,0.5833039283752441,812810,
1,96,False,left,left,0.7982399463653564,812810,
1,97,True,left,left,0.7128441333770752,812810,
1,98,True,right,right,1.5143229961395264,812810,
1,99,False,right,right,0.9608230590820312,812810,
2,0,False,left,left,0.8094217777252197,812810,
2,1,True,right,right,0.6232030391693115,812810,
2,2,False,left,left,0.5361161231994629,812810,
2,3,False,right,right,0.6961460113525391,812810,
2,4,False,left,left,0.6705160140991211,812810,
2,5,True,right,right,0.5567789077758789,812810,
2,6,True,left,right,0.844580888748169,812810,
2,7,True,right,right,0.4824531078338623,812810,
2,8,True,right,left,0.5377888679504395,812810,
2,9,False,left,left,0.20450806617736816,812810,
2,10,False,left,left,0.8711059093475342,812810,
2,11,True,left,right,0.9214820861816406,812810,
2,12,False,right,right,1.5342988967895508,812810,
2,13,True,left,left,0.8069438934326172,812810,
2,14,False,left,left,0.9702680110931396,812810,
2,15,True,right,right,0.7566781044006348,812810,
2,16,False,left,left,0.791205883026123,812810,
2,17,False,left,left,0.99446702003479,812810,
2,18,True,right,right,0.7985141277313232,812810,
2,19,False,left,left,0.859982967376709,812810,
2,20,True,right,right,0.6788251399993896,812810,
2,21,False,right,right,0.8801980018615723,812810,
2,22,False,right,right,0.801483154296875,812810,
2,23,True,right,left,1.1992669105529785,812810,
2,24,True,left,left,0.8107948303222656,812810,
2,25,False,left,left,0.6881740093231201,812810,
2,26,True,right,right,1.1463139057159424,812810,
2,27,True,left,left,0.9186451435089111,812810,
2,28,False,left,left,1.0805339813232422,812810,
2,29,False,right,right,1.176882028579712,812810,
2,30,True,right,right,1.3890490531921387,812810,
2,31,True,left,left,1.0219740867614746,812810,
2,32,False,right,right,1.1021530628204346,812810,
2,33,False,left,right,0.7977120876312256,812810,
2,34,False,left,left,0.6518371105194092,812810,
2,35,False,left,left,0.7195820808410645,812810,
2,36,False,left,left,0.5444209575653076,812810,
2,37,True,left,right,0.9085800647735596,812810,
2,38,False,right,right,0.6258602142333984,812810,
2,39,False,left,left,0.5346698760986328,812810,
2,40,True,right,right,0.8173568248748779,812810,
2,41,False,left,left,0.5244910717010498,812810,
2,42,False,right,left,0.45502710342407227,812810,
2,43,True,right,right,1.127774953842163,812810,
2,44,True,left,left,0.976719856262207,812810,
2,45,True,left,left,1.1209571361541748,812810,
2,46,False,left,left,0.8557660579681396,812810,
2,47,False,right,left,0.7355990409851074,812810,
2,48,False,left,left,0.7761578559875488,812810,
2,49,True,left,right,0.7037479877471924,812810,
2,50,False,left,right,1.0859739780426025,812810,
2,51,True,right,right,0.6273989677429199,812810,
2,52,False,right,right,0.8741481304168701,812810,
2,53,False,right,right,0.7062718868255615,812810,
2,54,True,left,left,0.785444974899292,812810,
2,55,True,left,left,0.9474020004272461,812810,
2,56,False,left,right,1.064634084701538,812810,
2,57,True,left,right,1.916363000869751,812810,
2,58,False,right,right,1.1169190406799316,812810,
2,59,True,left,left,0.7297182083129883,812810,
2,60,False,right,right,0.9749250411987305,812810,
2,61,True,right,left,0.8095929622650146,812810,
2,62,True,left,left,0.6239140033721924,812810,
2,63,False,left,left,0.8852660655975342,812810,
2,64,True,right,right,0.6607060432434082,812810,
2,65,False,left,left,0.6716458797454834,812810,
2,66,False,right,right,0.6853439807891846,812810,
2,67,True,right,left,1.9877309799194336,812810,
2,68,False,left,left,0.9302709102630615,812810,
2,69,True,right,right,0.3884119987487793,812810,
2,70,False,left,left,0.5407121181488037,812810,
2,71,True,left,right,0.35475802421569824,812810,
2,72,True,left,left,0.5982861518859863,812810,
2,73,True,right,left,0.7068970203399658,812810,
2,74,True,right,right,2.808140993118286,812810,
2,75,False,right,left,1.3289430141448975,812810,
2,76,True,right,right,0.5858809947967529,812810,
2,77,True,left,left,0.6228368282318115,812810,
2,78,False,right,right,0.6201870441436768,812810,
2,79,True,right,right,0.40860891342163086,812810,
2,80,True,left,left,0.5188510417938232,812810,
2,81,True,right,left,0.6560459136962891,812810,
2,82,True,right,left,0.6838438510894775,812810,
2,83,True,right,right,0.7653439044952393,812810,
2,84,True,left,left,0.648827075958252,812810,
2,85,False,left,left,0.8306999206542969,812810,
2,86,False,right,right,0.6168520450592041,812810,
2,87,True,left,left,0.6260528564453125,812810,
2,88,False,right,right,0.53957200050354,812810,
2,89,True,right,right,0.8925027847290039,812810,
2,90,True,left,left,1.6504440307617188,812810,
2,91,True,right,right,0.6396970748901367,812810,
2,92,False,left,left,0.5582070350646973,812810,
2,93,False,right,right,0.5748732089996338,812810,
2,94,False,right,right,0.6761889457702637,812810,
2,95,False,right,right,0.494797945022583,812810,
2,96,False,right,right,0.4273550510406494,812810,
2,97,False,right,left,0.49140000343322754,812810,
2,98,True,left,left,0.6976840496063232,812810,
2,99,False,right,right,0.9481091499328613,812810,
3,0,True,right,right,0.9114658832550049,812810,
3,1,True,left,left,0.5036962032318115,812810,
3,2,True,left,right,0.4742391109466553,812810,
3,3,True,left,right,0.7027080059051514,812810,
3,4,False,right,right,0.833549976348877,812810,
3,5,True,right,right,0.4791231155395508,812810,
3,6,True,right,right,0.46364402770996094,812810,
3,7,False,left,left,0.4911348819732666,812810,
3,8,False,right,right,0.5587658882141113,812810,
3,9,False,right,right,0.6691808700561523,812810,
3,10,False,right,right,0.5850820541381836,812810,
3,11,True,right,left,0.7147700786590576,812810,
3,12,False,left,left,0.5776188373565674,812810,
3,13,True,left,right,0.6664059162139893,812810,
3,14,False,left,left,0.6582880020141602,812810,
3,15,False,left,right,1.1006088256835938,812810,
3,16,True,right,right,0.673846960067749,812810,
3,17,True,left,left,0.551926851272583,812810,
3,18,True,right,right,0.5010459423065186,812810,
3,19,False,left,left,0.5297999382019043,812810,
3,20,True,left,right,0.6149609088897705,812810,
3,21,False,left,left,0.5686469078063965,812810,
3,22,True,left,right,0.7618310451507568,812810,
3,23,True,right,right,0.53265380859375,812810,
3,24,True,left,left,0.5541958808898926,812810,
3,25,False,left,left,0.9013099670410156,812810,
3,26,True,right,right,0.47016119956970215,812810,
3,27,True,left,left,0.5710160732269287,812810,
3,28,True,right,right,0.4302699565887451,812810,
3,29,False,right,right,0.5716249942779541,812810,
3,30,False,left,left,0.6919338703155518,812810,
3,31,True,left,right,0.7849149703979492,812810,
3,32,False,right,right,0.6098170280456543,812810,
3,33,False,left,left,0.4760761260986328,812810,
3,34,True,right,right,0.6579921245574951,812810,
3,35,False,right,right,0.8648800849914551,812810,
3,36,True,left,left,0.7641439437866211,812810,
3,37,False,right,right,0.8537399768829346,812810,
3,38,True,right,right,0.862246036529541,812810,
3,39,False,right,left,0.7006850242614746,812810,
3,40,False,left,left,0.977745771408081,812810,
3,41,False,right,right,0.5446569919586182,812810,
3,42,False,right,right,0.9125800132751465,812810,
3,43,True,right,right,0.9740869998931885,812810,
3,44,False,left,left,0.5350010395050049,812810,
3,45,True,right,right,0.6320879459381104,812810,
3,46,False,left,left,0.5297980308532715,812810,
3,47,False,right,right,0.7325670719146729,812810,
3,48,True,left,left,0.682581901550293,812810,
3,49,True,left,right,0.9677348136901855,812810,
3,50,False,right,right,1.2398788928985596,812810,
3,51,True,right,right,0.9865660667419434,812810,
3,52,False,left,left,0.7479817867279053,812810,
3,53,False,right,right,0.6284129619598389,812810,
3,54,True,left,left,0.5321791172027588,812810,
3,55,False,right,right,1.4172821044921875,812810,
3,56,True,left,left,0.6440179347991943,812810,
3,57,True,left,right,0.848228931427002,812810,
3,58,False,right,right,0.5304710865020752,812810,
3,59,False,left,left,0.5651931762695312,812810,
3,60,False,right,right,0.8541858196258545,812810,
3,61,False,left,left,0.6038458347320557,812810,
3,62,False,right,right,0.4997830390930176,812810,
3,63,False,right,left,0.7368721961975098,812810,
3,64,False,left,left,0.6066040992736816,812810,
3,65,False,right,right,0.9350159168243408,812810,
3,66,True,right,right,0.9680299758911133,812810,
3,67,False,right,left,1.0811059474945068,812810,
3,68,True,right,right,0.6413650512695312,812810,
3,69,True,left,left,0.5879478454589844,812810,
3,70,True,right,right,0.5369110107421875,812810,
3,71,True,right,left,0.8148620128631592,812810,
3,72,False,left,left,0.7240040302276611,812810,
3,73,True,right,right,0.49399781227111816,812810,
3,74,True,right,left,0.6920328140258789,812810,
3,75,False,left,left,0.4627840518951416,812810,
3,76,False,right,right,0.7044880390167236,812810,
3,77,True,left,left,0.6860010623931885,812810,
3,78,True,left,right,1.0894441604614258,812810,
3,79,False,right,right,0.6350669860839844,812810,
3,80,False,left,left,0.5551559925079346,812810,
3,81,False,left,right,1.0226621627807617,812810,
3,82,True,right,right,0.6337599754333496,812810,
3,83,False,left,left,0.7171630859375,812810,
3,84,False,right,right,0.6033399105072021,812810,
3,85,True,left,left,0.5953109264373779,812810,
3,86,False,right,right,0.4742741584777832,812810,
3,87,False,right,right,0.628026008605957,812810,
3,88,False,left,left,0.5374300479888916,812810,
3,89,False,left,right,0.7204248905181885,812810,
3,90,True,left,left,0.5729079246520996,812810,
3,91,False,left,left,0.77292799949646,812810,
3,92,True,right,right,0.5647580623626709,812810,
3,93,True,right,right,0.5500671863555908,812810,
3,94,True,left,left,0.6051762104034424,812810,
3,95,True,right,right,0.5438339710235596,812810,
3,96,True,left,left,0.4573700428009033,812810,
3,97,False,left,left,0.9967920780181885,812810,
3,98,True,left,left,0.6931929588317871,812810,
3,99,True,left,left,0.8960890769958496,812810,
4,0,True,right,right,0.6236271858215332,812810,
4,1,False,left,left,0.5983109474182129,812810,
4,2,True,right,right,0.5108389854431152,812810,
4,3,False,left,left,0.500978946685791,812810,
4,4,False,left,left,0.5466341972351074,812810,
4,5,False,right,right,1.0160729885101318,812810,
4,6,False,left,left,0.5109810829162598,812810,
4,7,True,right,right,0.4923980236053467,812810,
4,8,True,left,left,0.5697410106658936,812810,
4,9,True,right,right,0.4849069118499756,812810,
4,10,False,right,right,1.328822135925293,812810,
4,11,True,right,left,0.6270930767059326,812810,
4,12,False,right,right,0.9131498336791992,812810,
4,13,True,right,right,1.251688003540039,812810,
4,14,False,right,left,1.196854829788208,812810,
4,15,False,right,right,0.9487729072570801,812810,
4,16,False,right,right,0.5587139129638672,812810,
4,17,True,right,right,0.7292680740356445,812810,
4,18,True,left,left,0.7046220302581787,812810,
4,19,True,right,right,0.46446704864501953,812810,
4,20,False,left,left,0.641740083694458,812810,
4,21,False,left,right,0.5280930995941162,812810,
4,22,False,right,right,1.164431095123291,812810,
4,23,False,right,left,0.8522720336914062,812810,
4,24,True,left,left,0.6628539562225342,812810,
4,25,False,left,left,1.8390889167785645,812810,
4,26,False,right,right,0.7892088890075684,812810,
4,27,True,right,right,0.4219059944152832,812810,
4,28,True,left,left,0.6089470386505127,812810,
4,29,True,left,left,0.5304481983184814,812810,
4,30,False,right,left,0.4678471088409424,812810,
4,31,False,right,right,0.7280769348144531,812810,
4,32,True,left,left,0.5123300552368164,812810,
4,33,False,right,right,0.678070068359375,812810,
4,34,True,left,left,0.8297610282897949,812810,
4,35,False,right,right,0.6649279594421387,812810,
4,36,False,left,left,0.5225069522857666,812810,
4,37,False,left,right,0.8851180076599121,812810,
4,38,True,left,right,0.6706929206848145,812810,
4,39,True,left,left,0.7710468769073486,812810,
4,40,True,left,left,0.9196240901947021,812810,
4,41,False,right,right,0.5924110412597656,812810,
4,42,True,left,left,0.7059309482574463,812810,
4,43,False,left,right,0.5088169574737549,812810,
4,44,True,right,right,0.45894789695739746,812810,
4,45,False,left,left,0.7813489437103271,812810,
4,46,True,right,right,1.2231669425964355,812810,
4,47,False,right,right,1.0456418991088867,812810,
4,48,False,right,right,0.7040209770202637,812810,
4,49,True,right,left,0.744441032409668,812810,
4,50,True,right,right,0.46010804176330566,812810,
4,51,True,left,left,0.676037073135376,812810,
4,52,True,right,right,0.48524999618530273,812810,
4,53,True,left,left,0.5758681297302246,812810,
4,54,True,right,right,0.5269529819488525,812810,
4,55,False,right,right,0.6728911399841309,812810,
4,56,False,right,left,0.6188230514526367,812810,
4,57,False,right,right,1.0387051105499268,812810,
4,58,False,right,right,0.7857229709625244,812810,
4,59,False,right,right,0.8488438129425049,812810,
4,60,True,left,left,0.8218770027160645,812810,
4,61,False,left,left,0.7265100479125977,812810,
4,62,True,left,right,0.7972490787506104,812810,
4,63,False,left,left,0.8346080780029297,812810,
4,64,False,right,right,0.7158830165863037,812810,
4,65,False,right,left,1.1726751327514648,812810,
4,66,False,right,right,0.5661611557006836,812810,
4,67,False,left,left,0.817237138748169,812810,
4,68,False,left,left,1.127135992050171,812810,
4,69,False,left,right,0.8944401741027832,812810,
4,70,False,left,left,0.5788657665252686,812810,
4,71,False,left,left,0.5635581016540527,812810,
4,72,False,right,right,0.6516969203948975,812810,
4,73,False,left,left,0.5750730037689209,812810,
4,74,True,left,right,2.3527870178222656,812810,
4,75,True,left,right,1.1500840187072754,812810,
4,76,False,left,left,0.6578459739685059,812810,
4,77,False,left,left,0.507483959197998,812810,
4,78,False,right,right,0.5952608585357666,812810,
4,79,True,right,left,0.5490539073944092,812810,
4,80,False,right,right,0.5977599620819092,812810,
4,81,False,right,right,0.6915781497955322,812810,
4,82,False,left,left,0.4931938648223877,812810,
4,83,False,left,right,0.48807621002197266,812810,
4,84,False,left,left,1.0329039096832275,812810,
4,85,True,left,right,0.9185431003570557,812810,
4,86,True,right,right,0.5389690399169922,812810,
4,87,False,right,right,0.9893519878387451,812810,
4,88,False,left,left,0.7197880744934082,812810,
4,89,False,left,left,0.8235940933227539,812810,
4,90,True,left,left,1.132214069366455,812810,
4,91,True,left,left,0.6096229553222656,812810,
4,92,False,right,right,0.6106479167938232,812810,
4,93,False,right,left,0.6471409797668457,812810,
4,94,False,left,left,0.7105801105499268,812810,
4,95,True,left,right,3.520904064178467,812810,
4,96,True,left,left,1.603393793106079,812810,
4,97,False,right,right,1.3924510478973389,812810,
4,98,True,right,right,0.7383120059967041,812810,
4,99,False,left,left,0.6449069976806641,812810,
5,0,False,right,left,1.1904828548431396,812810,
5,1,True,right,right,1.3518669605255127,812810,
5,2,True,right,left,0.8070559501647949,812810,
5,3,True,left,left,0.6061711311340332,812810,
5,4,True,right,right,0.5460948944091797,812810,
5,5,True,right,right,0.7663450241088867,812810,
5,6,False,left,left,0.5453689098358154,812810,
5,7,True,left,left,1.2314550876617432,812810,
5,8,False,right,right,0.962684154510498,812810,
5,9,True,right,right,0.6380958557128906,812810,
5,10,False,right,right,0.9289839267730713,812810,
5,11,True,right,right,0.7326419353485107,812810,
5,12,False,left,left,0.8817329406738281,812810,
5,13,False,right,right,0.5987899303436279,812810,
5,14,True,right,right,0.8551361560821533,812810,
5,15,False,right,left,0.476154088973999,812810,
5,16,False,right,right,1.0977318286895752,812810,
5,17,True,right,left,0.7187948226928711,812810,
5,18,False,right,right,1.0240440368652344,812810,
5,19,False,right,right,0.6460950374603271,812810,
5,20,True,right,left,0.7784161567687988,812810,
5,21,False,right,right,1.1933338642120361,812810,
5,22,False,left,left,0.8871970176696777,812810,
5,23,False,right,left,1.1903409957885742,812810,
5,24,True,right,right,1.1355631351470947,812810,
5,25,False,left,left,0.9617710113525391,812810,
5,26,False,right,right,0.5724928379058838,812810,
5,27,False,right,left,0.9677631855010986,812810,
5,28,True,left,left,0.6387250423431396,812810,
5,29,True,right,right,0.589414119720459,812810,
5,30,True,left,left,0.6118230819702148,812810,
5,31,False,left,left,0.613839864730835,812810,
5,32,False,left,left,0.536754846572876,812810,
5,33,True,left,right,0.520622968673706,812810,
5,34,True,left,left,0.44362902641296387,812810,
5,35,True,right,right,0.667388916015625,812810,
5,36,False,left,left,1.3829948902130127,812810,
5,37,True,left,left,1.2050998210906982,812810,
5,38,False,right,right,0.5820448398590088,812810,
5,39,True,left,left,0.5388600826263428,812810,
5,40,True,left,left,0.4569380283355713,812810,
5,41,False,left,left,0.5582709312438965,812810,
5,42,False,left,left,0.690680980682373,812810,
5,43,True,left,left,0.7092900276184082,812810,
5,44,True,right,right,0.5587329864501953,812810,
5,45,False,left,left,0.5108189582824707,812810,
5,46,False,right,right,0.5858931541442871,812810,
5,47,False,left,left,0.7600901126861572,812810,
5,48,False,left,right,0.7906749248504639,812810,
5,49,True,left,left,0.7808399200439453,812810,
5,50,False,right,right,0.8371222019195557,812810,
5,51,True,left,left,0.9915509223937988,812810,
5,52,True,left,left,0.675156831741333,812810,
5,53,True,left,right,1.0107479095458984,812810,
5,54,False,left,left,0.8313078880310059,812810,
5,55,False,left,right,1.225602149963379,812810,
5,56,True,right,right,0.6682429313659668,812810,
5,57,False,right,left,1.4804580211639404,812810,
5,58,True,left,left,0.672659158706665,812810,
5,59,False,right,right,0.6038649082183838,812810,
5,60,True,left,left,1.0102369785308838,812810,
5,61,True,left,left,0.6515130996704102,812810,
5,62,False,right,right,0.6782240867614746,812810,
5,63,True,right,right,0.5565750598907471,812810,
5,64,False,left,left,1.4724619388580322,812810,
5,65,True,left,left,1.0052480697631836,812810,
5,66,True,left,right,1.3495581150054932,812810,
5,67,True,right,right,0.6897480487823486,812810,
5,68,False,left,left,0.657167911529541,812810,
5,69,False,right,right,0.5678548812866211,812810,
5,70,True,right,right,0.7819349765777588,812810,
5,71,True,right,right,0.46941399574279785,812810,
5,72,False,right,left,1.2644860744476318,812810,
5,73,True,right,right,0.8371479511260986,812810,
5,74,False,left,left,0.6948719024658203,812810,
5,75,False,left,left,0.7881879806518555,812810,
5,76,True,right,right,0.8707320690155029,812810,
5,77,False,left,left,0.5103371143341064,812810,
5,78,True,left,right,0.8864579200744629,812810,
5,79,True,left,right,0.7420139312744141,812810,
5,80,True,left,left,0.7316482067108154,812810,
5,81,False,right,right,1.2614731788635254,812810,
5,82,True,left,left,0.7677459716796875,812810,
5,83,True,right,right,0.5504159927368164,812810,
5,84,False,right,left,0.7064998149871826,812810,
5,85,True,right,right,0.536020040512085,812810,
5,86,False,right,left,0.7111778259277344,812810,
5,87,False,left,left,0.7038290500640869,812810,
5,88,False,right,right,0.8406682014465332,812810,
5,89,True,left,left,0.5506689548492432,812810,
5,90,True,left,left,0.6015231609344482,812810,
5,91,False,left,left,1.7727720737457275,812810,
5,92,False,right,right,0.9367139339447021,812810,
5,93,False,right,left,0.6911721229553223,812810,
5,94,False,left,left,0.6202630996704102,812810,
5,95,False,left,left,0.6059868335723877,812810,
5,96,False,left,left,0.6767840385437012,812810,
5,97,False,left,left,1.4417290687561035,812810,
5,98,False,right,right,0.6278419494628906,812810,
5,99,False,right,right,0.894413948059082,812810,
6,0,True,left,right,1.057239055633545,812810,
6,1,False,left,left,0.7802801132202148,812810,
6,2,True,left,right,0.6401698589324951,812810,
6,3,False,right,right,1.0614309310913086,812810,
6,4,False,right,right,0.648838996887207,812810,
6,5,False,right,right,0.8660709857940674,812810,
6,6,True,left,left,0.6192450523376465,812810,
6,7,False,left,left,0.7342097759246826,812810,
6,8,True,left,left,1.6215441226959229,812810,
6,9,False,right,right,0.5948262214660645,812810,
6,10,False,right,left,0.7055459022521973,812810,
6,11,False,right,right,0.4928319454193115,812810,
6,12,True,left,left,0.6127870082855225,812810,
6,13,True,right,right,0.8772499561309814,812810,
6,14,True,right,right,0.6056869029998779,812810,
6,15,True,left,left,0.5530500411987305,812810,
6,16,True,left,right,0.39933300018310547,812810,
6,17,False,right,right,0.5107080936431885,812810,
6,18,False,right,right,0.7476189136505127,812810,
6,19,True,left,left,1.1746149063110352,812810,
6,20,True,left,left,0.6737461090087891,812810,
6,21,False,left,left,1.035067081451416,812810,
6,22,False,left,left,1.2120258808135986,812810,
6,23,True,right,right,2.836570978164673,812810,
6,24,True,left,left,1.0003159046173096,812810,
6,25,False,right,right,0.7105720043182373,812810,
6,26,False,right,right,1.338696002960205,812810,
6,27,False,left,left,0.7091851234436035,812810,
6,28,True,left,left,0.6998441219329834,812810,
6,29,True,right,right,0.5749509334564209,812810,
6,30,False,right,right,1.1602580547332764,812810,
6,31,False,right,left,1.358665943145752,812810,
6,32,True,right,right,1.0416200160980225,812810,
6,33,True,right,right,0.6870729923248291,812810,
6,34,False,right,right,0.8462409973144531,812810,
6,35,False,right,left,1.178938865661621,812810,
6,36,False,right,left,1.3323287963867188,812810,
6,37,False,left,left,1.0388901233673096,812810,
6,38,False,left,left,2.0025830268859863,812810,
6,39,True,left,left,0.8785841464996338,812810,
6,40,False,right,right,0.6871969699859619,812810,
6,41,False,left,left,0.6034729480743408,812810,
6,42,False,right,right,0.49040889739990234,812810,
6,43,False,right,right,1.3632621765136719,812810,
6,44,False,right,right,1.6116209030151367,812810,
6,45,True,right,right,0.8000061511993408,812810,
6,46,True,right,right,1.9021000862121582,812810,
6,47,False,left,left,0.7967920303344727,812810,
6,48,True,right,right,0.5849111080169678,812810,
6,49,True,left,left,0.6203229427337646,812810,
6,50,True,right,right,0.5962920188903809,812810,
6,51,True,right,left,0.44865894317626953,812810,
6,52,False,right,right,1.1535980701446533,812810,
6,53,True,left,left,0.7199640274047852,812810,
6,54,True,left,left,0.552293062210083,812810,
6,55,False,left,left,0.7501559257507324,812810,
6,56,True,left,left,0.5877201557159424,812810,
6,57,False,left,left,0.8358368873596191,812810,
6,58,False,right,right,0.9335639476776123,812810,
6,59,False,left,left,0.5613138675689697,812810,
6,60,True,right,right,0.5690100193023682,812810,
6,61,True,left,left,0.5552430152893066,812810,
6,62,True,left,right,0.5203380584716797,812810,
6,63,False,right,right,0.5964488983154297,812810,
6,64,True,right,right,0.6304409503936768,812810,
6,65,False,left,left,0.6630840301513672,812810,
6,66,False,right,right,0.5706720352172852,812810,
6,67,True,left,left,0.8302137851715088,812810,
6,68,True,right,right,0.6175990104675293,812810,
6,69,True,right,right,0.6770980358123779,812810,
6,70,False,left,left,0.4494800567626953,812810,
6,71,False,left,left,0.843487024307251,812810,
6,72,True,right,right,0.44912195205688477,812810,
6,73,True,left,left,0.5031218528747559,812810,
6,74,True,left,left,0.4245638847351074,812810,
6,75,False,left,left,0.6434230804443359,812810,
6,76,True,left,left,0.5469739437103271,812810,
6,77,True,left,left,0.626776933670044,812810,
6,78,False,right,left,0.674936056137085,812810,
6,79,True,left,left,0.8137059211730957,812810,
6,80,False,right,right,0.8120410442352295,812810,
6,81,False,left,left,1.1414039134979248,812810,
6,82,False,right,right,0.601848840713501,812810,
6,83,False,right,right,0.5422849655151367,812810,
6,84,True,left,left,0.6428310871124268,812810,
6,85,False,left,left,0.6404249668121338,812810,
6,86,False,right,right,0.5958349704742432,812810,
6,87,False,right,right,1.155277967453003,812810,
6,88,True,left,left,0.54544997215271,812810,
6,89,True,right,left,0.4371039867401123,812810,
6,90,False,left,left,0.9113578796386719,812810,
6,91,True,right,right,0.6431169509887695,812810,
6,92,True,left,left,0.7687339782714844,812810,
6,93,True,left,left,0.659635066986084,812810,
6,94,True,left,left,0.5673308372497559,812810,
6,95,True,right,right,0.5599639415740967,812810,
6,96,True,left,left,0.6016290187835693,812810,
6,97,False,left,left,0.7683498859405518,812810,
6,98,True,right,right,0.6191799640655518,812810,
6,99,False,right,right,0.9645929336547852,812810,
7,0,True,left,right,37.96646189689636,812810,
7,1,False,left,left,2.0665018558502197,812810,
7,2,False,left,right,1.409203052520752,812810,
7,3,True,left,right,0.770737886428833,812810,
7,4,False,left,left,0.7313671112060547,812810,
7,5,False,left,left,0.6555759906768799,812810,
7,6,True,left,left,0.8191289901733398,812810,
7,7,True,right,right,0.5470249652862549,812810,
7,8,True,left,left,0.4720888137817383,812810,
7,9,False,left,left,0.8100178241729736,812810,
7,10,True,left,left,0.6572999954223633,812810,
7,11,True,right,right,0.4814751148223877,812810,
7,12,False,left,left,0.54563307762146,812810,
7,13,True,right,right,0.5392031669616699,812810,
7,14,False,right,right,0.7327520847320557,812810,
7,15,False,right,left,1.0167009830474854,812810,
7,16,True,left,right,0.7979018688201904,812810,
7,17,False,right,right,0.7148349285125732,812810,
7,18,True,right,right,0.5300099849700928,812810,
7,19,False,right,right,1.043652057647705,812810,
7,20,False,right,right,0.6680898666381836,812810,
7,21,False,right,right,0.8387739658355713,812810,
7,22,False,left,left,0.5869548320770264,812810,
7,23,False,left,left,0.676602840423584,812810,
7,24,False,right,right,0.5162968635559082,812810,
7,25,False,left,left,0.5381889343261719,812810,
7,26,True,left,right,0.721858024597168,812810,
7,27,True,left,left,0.6352450847625732,812810,
7,28,False,left,left,1.0297150611877441,812810,
7,29,False,right,right,0.49289917945861816,812810,
7,30,False,right,right,0.5076720714569092,812810,
7,31,True,left,left,0.5418150424957275,812810,
7,32,False,left,left,0.6054930686950684,812810,
7,33,True,right,right,0.5141639709472656,812810,
7,34,False,left,left,0.8446578979492188,812810,
7,35,False,right,right,0.7744240760803223,812810,
7,36,False,right,right,0.5386760234832764,812810,
7,37,False,right,left,1.320080041885376,812810,
7,38,False,right,right,0.9960238933563232,812810,
7,39,True,left,left,0.6083369255065918,812810,
7,40,False,left,left,0.5880570411682129,812810,
7,41,True,left,right,0.5444328784942627,812810,
7,42,True,left,left,0.60294508934021,812810,
7,43,True,right,right,0.5520730018615723,812810,
7,44,True,right,right,1.438378095626831,812810,
7,45,False,right,left,0.8017079830169678,812810,
7,46,False,left,left,0.6448719501495361,812810,
7,47,False,right,right,0.5073440074920654,812810,
7,48,True,left,left,0.6499419212341309,812810,
7,49,True,right,right,1.1738710403442383,812810,
7,50,True,right,left,0.8927090167999268,812810,
7,51,True,right,right,0.5508370399475098,812810,
7,52,True,left,left,0.6711878776550293,812810,
7,53,False,left,left,0.5160729885101318,812810,
7,54,True,left,right,1.3716979026794434,812810,
7,55,False,left,right,1.2745161056518555,812810,
7,56,False,right,right,0.9924359321594238,812810,
7,57,True,left,left,0.6076169013977051,812810,
7,58,False,right,right,1.1705520153045654,812810,
7,59,False,right,right,1.1437339782714844,812810,
7,60,True,left,left,0.45274996757507324,812810,
7,61,True,left,left,0.475693941116333,812810,
7,62,True,right,right,0.4959590435028076,812810,
7,63,True,right,right,1.194201946258545,812810,
7,64,False,right,right,1.132357120513916,812810,
7,65,False,right,right,0.8161230087280273,812810,
7,66,False,left,left,0.6287119388580322,812810,
7,67,True,right,right,0.5129890441894531,812810,
7,68,False,right,right,1.1253390312194824,812810,
7,69,True,left,left,0.5412631034851074,812810,
7,70,True,right,right,0.9184808731079102,812810,
7,71,True,right,right,0.8867940902709961,812810,
7,72,True,left,left,0.7658891677856445,812810,
7,73,False,right,right,1.4119200706481934,812810,
7,74,True,left,left,0.5788969993591309,812810,
7,75,True,left,left,0.5643129348754883,812810,
7,76,False,left,left,0.8709490299224854,812810,
7,77,True,right,right,0.6728689670562744,812810,
7,78,True,right,right,0.6775438785552979,812810,
7,79,False,left,left,0.5536978244781494,812810,
7,80,True,right,right,0.6294758319854736,812810,
7,81,True,right,right,1.5940780639648438,812810,
7,82,True,right,right,0.8088421821594238,812810,
7,83,False,right,right,1.0347390174865723,812810,
7,84,False,right,right,1.2238869667053223,812810,
7,85,True,left,left,0.6766390800476074,812810,
7,86,True,left,left,0.7758901119232178,812810,
7,87,True,right,right,3.514920949935913,812810,
7,88,False,right,right,1.2496140003204346,812810,
7,89,False,right,left,1.382551908493042,812810,
7,90,True,left,left,0.5977120399475098,812810,
7,91,False,left,left,0.9405980110168457,812810,
7,92,False,right,right,0.631295919418335,812810,
7,93,False,left,left,0.7143189907073975,812810,
7,94,True,left,left,0.6816980838775635,812810,
7,95,True,right,right,0.4728209972381592,812810,
7,96,False,right,right,1.7909979820251465,812810,
7,97,True,left,left,0.6064000129699707,812810,
7,98,False,left,left,1.0799980163574219,812810,
7,99,True,left,left,0.815558910369873,812810,
8,0,True,left,left,0.7551469802856445,812810,
8,1,True,left,left,0.6640310287475586,812810,
8,2,True,left,left,0.523813009262085,812810,
8,3,True,right,right,0.5510420799255371,812810,
8,4,True,left,left,0.4767489433288574,812810,
8,5,True,left,left,0.4555180072784424,812810,
8,6,True,right,right,0.44560909271240234,812810,
8,7,True,right,left,0.6614689826965332,812810,
8,8,True,left,left,0.5505380630493164,812810,
8,9,False,right,right,0.8230249881744385,812810,
8,10,True,right,left,0.5676391124725342,812810,
8,11,True,left,left,0.6152100563049316,812810,
8,12,False,right,right,0.6729061603546143,812810,
8,13,False,left,left,0.626121997833252,812810,
8,14,False,right,right,0.5352568626403809,812810,
8,15,False,left,left,0.47055697441101074,812810,
8,16,True,left,left,0.9718968868255615,812810,
8,17,False,left,left,0.6419718265533447,812810,
8,18,True,left,right,0.5950548648834229,812810,
8,19,True,left,left,0.6350650787353516,812810,
8,20,False,right,right,0.51031494140625,812810,
8,21,False,left,left,0.7541170120239258,812810,
8,22,True,left,left,0.6355459690093994,812810,
8,23,False,left,left,1.2118029594421387,812810,
8,24,True,right,right,0.6913678646087646,812810,
8,25,False,right,left,0.9128351211547852,812810,
8,26,True,left,left,0.5556080341339111,812810,
8,27,True,left,left,0.6481959819793701,812810,
8,28,True,right,right,0.5783171653747559,812810,
8,29,True,left,left,0.5128681659698486,812810,
8,30,False,right,right,0.532742977142334,812810,
8,31,False,right,right,0.6229150295257568,812810,
8,32,False,right,right,0.6104788780212402,812810,
8,33,True,right,left,0.691673994064331,812810,
8,34,False,right,right,0.826664924621582,812810,
8,35,False,right,right,0.5915999412536621,812810,
8,36,False,right,right,0.9337880611419678,812810,
8,37,True,right,right,0.6991431713104248,812810,
8,38,True,right,right,0.587151050567627,812810,
8,39,True,right,right,0.7298359870910645,812810,
8,40,False,right,right,0.6828019618988037,812810,
8,41,True,left,left,0.5938088893890381,812810,
8,42,True,left,left,0.6422569751739502,812810,
8,43,True,right,right,0.7205929756164551,812810,
8,44,False,right,right,0.826059103012085,812810,
8,45,False,right,left,1.199728012084961,812810,
8,46,True,left,left,0.7230370044708252,812810,
8,47,True,right,right,0.5834259986877441,812810,
8,48,True,left,left,0.6121737957000732,812810,
8,49,False,left,left,0.7147181034088135,812810,
8,50,False,right,right,0.7277758121490479,812810,
8,51,False,left,left,0.9487650394439697,812810,
8,52,False,left,left,1.347343921661377,812810,
8,53,False,left,left,0.7244861125946045,812810,
8,54,True,left,left,0.6869170665740967,812810,
8,55,True,left,left,0.5594120025634766,812810,
8,56,True,left,left,0.5327188968658447,812810,
8,57,False,right,right,0.6759078502655029,812810,
8,58,False,left,left,0.5156528949737549,812810,
8,59,True,right,left,0.8205130100250244,812810,
8,60,False,right,right,0.7444198131561279,812810,
8,61,False,left,left,0.5093250274658203,812810,
8,62,False,left,left,0.49847984313964844,812810,
8,63,False,right,right,0.5182268619537354,812810,
8,64,True,right,right,1.4379429817199707,812810,
8,65,False,right,right,0.6808609962463379,812810,
8,66,True,left,left,0.7935287952423096,812810,
8,67,True,right,right,0.5467939376831055,812810,
8,68,False,left,left,0.5933451652526855,812810,
8,69,False,right,right,0.511350154876709,812810,
8,70,True,right,right,0.8147411346435547,812810,
8,71,True,left,left,0.555656909942627,812810,
8,72,True,left,left,0.5313310623168945,812810,
8,73,False,left,left,1.2948529720306396,812810,
8,74,False,left,right,1.2851190567016602,812810,
8,75,True,right,right,0.9914131164550781,812810,
8,76,True,left,left,0.5841100215911865,812810,
8,77,False,left,left,0.641409158706665,812810,
8,78,True,left,left,0.9595391750335693,812810,
8,79,True,right,right,0.5732510089874268,812810,
8,80,False,right,left,0.7475340366363525,812810,
8,81,False,right,right,0.5713040828704834,812810,
8,82,False,right,right,0.6127591133117676,812810,
8,83,True,left,left,0.5828831195831299,812810,
8,84,True,left,left,0.5428330898284912,812810,
8,85,False,right,right,0.6047718524932861,812810,
8,86,False,right,left,1.1676721572875977,812810,
8,87,True,right,right,1.5154850482940674,812810,
8,88,False,left,left,0.7139918804168701,812810,
8,89,True,left,left,0.8581030368804932,812810,
8,90,False,right,right,1.0049870014190674,812810,
8,91,False,right,right,0.5626389980316162,812810,
8,92,True,left,left,0.5854899883270264,812810,
8,93,True,right,right,0.571723222732544,812810,
8,94,True,left,left,0.5560729503631592,812810,
8,95,False,right,right,0.6961510181427002,812810,
8,96,True,left,left,0.5294039249420166,812810,
8,97,False,right,right,0.5589520931243896,812810,
8,98,True,right,left,0.8071739673614502,812810,
8,99,False,left,left,0.8740329742431641,812810,
9,0,True,left,left,0.8555748462677002,812810,
9,1,True,right,right,0.6012899875640869,812810,
9,2,False,right,right,0.5887649059295654,812810,
9,3,True,left,left,0.45351505279541016,812810,
9,4,True,left,left,0.5688328742980957,812810,
9,5,True,right,right,0.5137159824371338,812810,
9,6,False,left,left,0.8191318511962891,812810,
9,7,False,right,right,0.5328190326690674,812810,
9,8,True,left,left,0.6577770709991455,812810,
9,9,False,right,right,0.504892110824585,812810,
9,10,True,right,right,0.9962999820709229,812810,
9,11,False,left,left,0.5147299766540527,812810,
9,12,True,left,left,0.692241907119751,812810,
9,13,False,left,left,0.6653149127960205,812810,
9,14,False,left,right,0.7479450702667236,812810,
9,15,False,right,right,0.5916550159454346,812810,
9,16,True,right,left,0.5886859893798828,812810,
9,17,False,left,left,0.8828351497650146,812810,
9,18,False,right,right,0.7341771125793457,812810,
9,19,False,left,left,0.6170871257781982,812810,
9,20,False,right,right,0.8195621967315674,812810,
9,21,True,left,left,0.5198378562927246,812810,
9,22,True,right,right,0.4762711524963379,812810,
9,23,True,left,left,0.48011088371276855,812810,
9,24,False,left,left,0.7831950187683105,812810,
9,25,False,right,right,0.563101053237915,812810,
9,26,True,left,left,0.5313470363616943,812810,
9,27,True,left,right,1.8539581298828125,812810,
9,28,True,right,right,0.8696730136871338,812810,
9,29,True,right,right,0.8135688304901123,812810,
9,30,True,left,left,0.5711278915405273,812810,
9,31,False,left,left,0.9215958118438721,812810,
9,32,False,right,right,0.59859299659729,812810,
9,33,True,right,right,0.7042460441589355,812810,
9,34,False,left,left,0.5988421440124512,812810,
9,35,True,right,right,0.5509738922119141,812810,
9,36,False,right,right,1.0234918594360352,812810,
9,37,False,right,right,0.6616401672363281,812810,
9,38,False,right,right,0.7438011169433594,812810,
9,39,False,left,left,1.290571928024292,812810,
9,40,True,left,left,0.6521739959716797,812810,
9,41,True,right,right,0.5078980922698975,812810,
9,42,False,left,left,0.729107141494751,812810,
9,43,True,left,left,0.6119239330291748,812810,
9,44,False,left,right,1.140589952468872,812810,
9,45,True,right,right,0.660991907119751,812810,
9,46,True,right,right,1.1338059902191162,812810,
9,47,False,left,left,1.324753999710083,812810,
9,48,True,right,right,0.6420550346374512,812810,
9,49,True,left,left,1.0897610187530518,812810,
9,50,True,right,right,0.6609129905700684,812810,
9,51,False,left,left,0.5671780109405518,812810,
9,52,True,left,left,0.5659079551696777,812810,
9,53,False,left,left,1.2340610027313232,812810,
9,54,False,right,right,0.7063319683074951,812810,
9,55,False,left,left,0.6015589237213135,812810,
9,56,False,left,left,0.671640157699585,812810,
9,57,False,right,right,0.7131760120391846,812810,
9,58,True,right,right,0.8940870761871338,812810,
9,59,True,right,right,0.6279869079589844,812810,
9,60,False,left,left,0.625662088394165,812810,
9,61,True,right,right,0.497330904006958,812810,
9,62,False,left,left,0.5845780372619629,812810,
9,63,False,right,right,0.5820279121398926,812810,
9,64,False,left,left,0.555150032043457,812810,
9,65,True,right,right,0.6017820835113525,812810,
9,66,False,left,left,0.7134060859680176,812810,
9,67,False,left,right,0.7235848903656006,812810,
9,68,True,left,left,0.5922529697418213,812810,
9,69,False,right,right,0.4800598621368408,812810,
9,70,False,left,left,0.9094700813293457,812810,
9,71,True,right,right,0.6269509792327881,812810,
9,72,True,right,right,0.7065920829772949,812810,
9,73,True,left,left,0.5574600696563721,812810,
9,74,False,left,left,0.7159302234649658,812810,
9,75,True,right,right,1.020880937576294,812810,
9,76,True,right,left,0.7117090225219727,812810,
9,77,True,right,left,1.1050760746002197,812810,
9,78,True,right,left,0.9065821170806885,812810,
9,79,False,right,right,0.8039851188659668,812810,
9,80,False,right,right,0.6639730930328369,812810,
9,81,False,left,left,0.8944010734558105,812810,
9,82,True,right,left,0.8666770458221436,812810,
9,83,True,left,left,0.5769519805908203,812810,
9,84,True,right,right,0.5141241550445557,812810,
9,85,True,right,right,0.523169994354248,812810,
9,86,False,right,left,0.8297290802001953,812810,
9,87,True,left,left,0.5514380931854248,812810,
9,88,False,left,left,1.112351894378662,812810,
9,89,False,right,right,0.5616779327392578,812810,
9,90,True,right,right,1.3066420555114746,812810,
9,91,False,left,left,0.8709280490875244,812810,
9,92,True,left,left,0.718379020690918,812810,
9,93,False,left,left,0.8874449729919434,812810,
9,94,False,right,right,0.677725076675415,812810,
9,95,False,left,left,0.7717978954315186,812810,
9,96,True,left,left,0.8507559299468994,812810,
9,97,False,left,left,0.6045370101928711,812810,
9,98,False,right,right,0.4782130718231201,812810,
9,99,True,right,right,1.1629550457000732,812810,
