block,trial,s1_state,direction,response,rt,pair,
0,0,True,right,right,1.608137845993042,476030,
0,1,False,left,left,1.3257911205291748,476030,
0,2,False,right,right,1.544090986251831,476030,
0,3,False,left,left,1.262631893157959,476030,
0,4,False,left,left,1.2079219818115234,476030,
0,5,True,left,right,1.2980239391326904,476030,
0,6,False,left,left,1.3494818210601807,476030,
0,7,True,right,right,1.0228469371795654,476030,
0,8,True,left,left,0.7659511566162109,476030,
0,9,True,left,left,1.2698371410369873,476030,
0,10,False,right,right,1.0147380828857422,476030,
0,11,False,right,right,0.8568871021270752,476030,
0,12,True,right,left,0.9236099720001221,476030,
0,13,False,left,left,1.039909839630127,476030,
0,14,False,right,right,1.2206270694732666,476030,
0,15,False,left,left,0.8862199783325195,476030,
0,16,True,left,left,0.9981460571289062,476030,
0,17,False,right,right,1.1885790824890137,476030,
0,18,False,left,left,1.1797010898590088,476030,
0,19,False,right,right,1.428009033203125,476030,
0,20,False,right,right,0.7617161273956299,476030,
0,21,False,left,left,1.1477859020233154,476030,
0,22,False,right,right,1.1163110733032227,476030,
0,23,True,right,right,1.094316005706787,476030,
0,24,False,left,left,1.009680986404419,476030,
0,25,True,right,right,0.8417999744415283,476030,
0,26,False,left,left,0.7883889675140381,476030,
0,27,True,right,right,1.1025638580322266,476030,
0,28,True,left,left,0.778548002243042,476030,
0,29,True,left,left,1.5361549854278564,476030,
0,30,False,right,right,0.7782571315765381,476030,
0,31,False,left,left,0.979557991027832,476030,
0,32,False,right,right,0.7802190780639648,476030,
0,33,False,left,left,0.6541111469268799,476030,
0,34,False,right,right,0.7409348487854004,476030,
0,35,False,right,right,0.7120258808135986,476030,
0,36,True,right,left,1.0483529567718506,476030,
0,37,True,left,right,1.0683391094207764,476030,
0,38,True,right,right,1.272519826889038,476030,
0,39,True,right,left,0.854943037033081,476030,
0,40,True,right,right,1.1112511157989502,476030,
0,41,False,left,left,0.7270190715789795,476030,
0,42,False,left,left,0.7660369873046875,476030,
0,43,True,left,left,1.5445189476013184,476030,
0,44,True,right,right,0.7929878234863281,476030,
0,45,True,right,right,1.116858959197998,476030,
0,46,False,right,right,0.8785429000854492,476030,
0,47,False,right,right,0.6403448581695557,476030,
0,48,True,right,right,1.1465320587158203,476030,
0,49,False,right,right,0.88326096534729,476030,
0,50,False,right,right,0.548820972442627,476030,
0,51,True,left,right,0.8989098072052002,476030,
0,52,False,right,right,0.532660961151123,476030,
0,53,True,right,left,1.3835301399230957,476030,
0,54,False,right,right,1.4513041973114014,476030,
0,55,True,left,right,1.6670188903808594,476030,
0,56,False,right,right,1.2523431777954102,476030,
0,57,True,left,left,1.2671329975128174,476030,
0,58,False,left,left,0.729119062423706,476030,
0,59,True,left,right,1.3011419773101807,476030,
0,60,False,left,left,0.6708149909973145,476030,
0,61,False,left,left,1.1189239025115967,476030,
0,62,False,right,right,0.7681691646575928,476030,
0,63,False,right,right,0.7500360012054443,476030,
0,64,True,left,left,1.2829439640045166,476030,
0,65,True,right,left,1.2858009338378906,476030,
0,66,False,right,right,1.1686251163482666,476030,
0,67,True,left,left,1.7431371212005615,476030,
0,68,False,left,left,1.470229148864746,476030,
0,69,False,left,left,0.9049510955810547,476030,
0,70,True,left,right,1.32778000831604,476030,
0,71,False,left,left,0.846289873123169,476030,
0,72,False,left,left,0.728018045425415,476030,
0,73,True,right,right,1.2492561340332031,476030,
0,74,True,right,right,1.1028850078582764,476030,
0,75,True,left,left,1.3919219970703125,476030,
0,76,True,left,left,1.0184149742126465,476030,
0,77,False,right,right,1.1240301132202148,476030,
0,78,False,left,left,0.6788170337677002,476030,
0,79,False,right,right,1.0653791427612305,476030,
0,80,True,right,right,1.1182670593261719,476030,
0,81,True,right,right,0.8612051010131836,476030,
0,82,False,left,left,0.5770130157470703,476030,
0,83,True,left,right,1.397731065750122,476030,
0,84,False,right,right,1.1816129684448242,476030,
0,85,False,right,right,1.219985008239746,476030,
0,86,True,left,left,1.2292358875274658,476030,
0,87,False,right,right,1.2791359424591064,476030,
0,88,False,left,left,1.3100519180297852,476030,
0,89,True,left,left,1.379133939743042,476030,
0,90,True,right,left,1.461345911026001,476030,
0,91,False,left,left,0.9024858474731445,476030,
0,92,True,left,left,0.8234319686889648,476030,
0,93,True,left,left,0.7493038177490234,476030,
0,94,False,left,left,0.8747820854187012,476030,
0,95,False,right,right,1.264068841934204,476030,
0,96,False,right,right,1.260483980178833,476030,
0,97,False,right,right,1.088003158569336,476030,
0,98,False,left,left,0.6529169082641602,476030,
0,99,True,left,left,0.856564998626709,476030,
1,0,True,left,right,1.6774730682373047,476030,
1,1,False,left,left,1.0413219928741455,476030,
1,2,True,left,right,0.5252690315246582,476030,
1,3,False,right,right,0.7955279350280762,476030,
1,4,True,right,right,0.683089017868042,476030,
1,5,True,right,left,1.500540018081665,476030,
1,6,True,left,left,0.6958479881286621,476030,
1,7,False,right,right,0.9766349792480469,476030,
1,8,False,left,left,0.7024331092834473,476030,
1,9,False,right,right,0.7884409427642822,476030,
1,10,True,left,left,0.8667111396789551,476030,
1,11,False,right,right,1.2451610565185547,476030,
1,12,True,right,left,1.1510140895843506,476030,
1,13,True,right,right,2.841325044631958,476030,
1,14,False,left,left,0.6968979835510254,476030,
1,15,False,left,left,0.6231908798217773,476030,
1,16,False,left,left,1.0649149417877197,476030,
1,17,True,left,right,1.5229179859161377,476030,
1,18,False,left,left,1.37154221534729,476030,
1,19,True,left,left,0.8930058479309082,476030,
1,20,True,right,left,0.8586580753326416,476030,
1,21,False,left,left,1.062211036682129,476030,
1,22,False,right,right,0.8201489448547363,476030,
1,23,False,right,right,0.8861978054046631,476030,
1,24,True,right,right,1.2347300052642822,476030,
1,25,False,right,right,0.9209270477294922,476030,
1,26,False,right,right,0.6395120620727539,476030,
1,27,True,right,right,2.2869808673858643,476030,
1,28,False,right,right,1.2004270553588867,476030,
1,29,True,left,left,1.0483620166778564,476030,
1,30,True,left,left,1.3248200416564941,476030,
1,31,False,right,right,0.6590070724487305,476030,
1,32,False,left,left,0.7953059673309326,476030,
1,33,False,right,right,1.0659699440002441,476030,
1,34,True,right,left,1.295362949371338,476030,
1,35,True,left,left,1.1982781887054443,476030,
1,36,True,right,right,2.505197048187256,476030,
1,37,False,left,left,0.7290740013122559,476030,
1,38,False,right,right,0.6824991703033447,476030,
1,39,True,right,left,0.9753899574279785,476030,
1,40,True,right,right,0.8545689582824707,476030,
1,41,False,right,right,1.2244150638580322,476030,
1,42,False,left,left,0.8465349674224854,476030,
1,43,False,right,right,1.1601061820983887,476030,
1,44,False,left,left,0.6459560394287109,476030,
1,45,True,left,left,0.9075648784637451,476030,
1,46,True,right,left,0.9207220077514648,476030,
1,47,True,left,left,0.9363389015197754,476030,
1,48,True,left,left,0.8848350048065186,476030,
1,49,False,right,right,1.5132970809936523,476030,
1,50,True,right,left,1.4498569965362549,476030,
1,51,False,right,left,1.170957088470459,476030,
1,52,False,right,right,1.165405035018921,476030,
1,53,True,left,left,1.011000156402588,476030,
1,54,True,left,left,0.8793590068817139,476030,
1,55,False,left,left,0.8023200035095215,476030,
1,56,False,right,right,0.7233579158782959,476030,
1,57,True,right,left,0.9844040870666504,476030,
1,58,True,left,left,0.9369909763336182,476030,
1,59,True,left,left,0.9679770469665527,476030,
1,60,True,right,left,0.9216728210449219,476030,
1,61,True,left,left,1.2805559635162354,476030,
1,62,False,left,left,0.8340098857879639,476030,
1,63,False,right,right,0.7233281135559082,476030,
1,64,False,left,left,0.5676219463348389,476030,
1,65,False,left,left,0.6304628849029541,476030,
1,66,False,right,right,1.1012680530548096,476030,
1,67,True,left,right,1.3094370365142822,476030,
1,68,True,right,left,1.8614881038665771,476030,
1,69,True,left,right,1.5858259201049805,476030,
1,70,False,left,left,0.7216858863830566,476030,
1,71,False,right,right,1.3238468170166016,476030,
1,72,True,left,left,1.0295889377593994,476030,
1,73,True,left,left,0.9640920162200928,476030,
1,74,False,right,right,0.8206579685211182,476030,
1,75,True,left,left,1.1550168991088867,476030,
1,76,False,left,left,0.8023021221160889,476030,
1,77,True,left,left,1.0136089324951172,476030,
1,78,False,right,right,0.9308199882507324,476030,
1,79,True,left,left,1.0308051109313965,476030,
1,80,True,left,left,0.7365131378173828,476030,
1,81,False,right,right,1.3834631443023682,476030,
1,82,True,right,left,1.3177828788757324,476030,
1,83,True,right,right,1.0841009616851807,476030,
1,84,True,left,left,0.9354920387268066,476030,
1,85,False,right,right,0.8983371257781982,476030,
1,86,False,right,right,0.8172597885131836,476030,
1,87,False,right,left,1.277284860610962,476030,
1,88,False,right,right,1.4332139492034912,476030,
1,89,True,left,left,0.6960749626159668,476030,
1,90,False,left,left,0.7611410617828369,476030,
1,91,True,left,left,0.827430009841919,476030,
1,92,False,left,left,0.5563168525695801,476030,
1,93,True,right,left,0.636970043182373,476030,
1,94,False,left,left,0.5698559284210205,476030,
1,95,False,right,right,1.2120189666748047,476030,
1,96,False,right,left,1.4274559020996094,476030,
1,97,False,right,left,1.408419132232666,476030,
1,98,True,left,left,1.3512310981750488,476030,
1,99,False,left,left,0.8289620876312256,476030,
2,0,False,left,left,1.2209680080413818,476030,
2,1,False,right,right,1.1181211471557617,476030,
2,2,True,left,left,0.6454310417175293,476030,
2,3,False,right,left,1.4340219497680664,476030,
2,4,True,right,right,1.194133996963501,476030,
2,5,True,left,left,0.7274470329284668,476030,
2,6,False,left,left,1.3281209468841553,476030,
2,7,False,left,left,0.8158979415893555,476030,
2,8,False,left,right,1.2610280513763428,476030,
2,9,True,left,left,0.8405671119689941,476030,
2,10,False,right,right,2.0102908611297607,476030,
2,11,False,left,left,0.6807351112365723,476030,
2,12,False,left,left,0.5772190093994141,476030,
2,13,False,right,right,0.5169329643249512,476030,
2,14,True,right,left,0.8476979732513428,476030,
2,15,False,right,left,1.0994541645050049,476030,
2,16,False,left,left,0.5363869667053223,476030,
2,17,False,right,right,0.9135580062866211,476030,
2,18,False,right,left,0.8613510131835938,476030,
2,19,False,left,left,0.48406291007995605,476030,
2,20,False,right,right,0.8687279224395752,476030,
2,21,True,left,left,1.0382468700408936,476030,
2,22,False,left,left,0.5462300777435303,476030,
2,23,False,left,left,0.44449520111083984,476030,
2,24,True,left,left,0.7010810375213623,476030,
2,25,False,left,left,0.4413321018218994,476030,
2,26,True,right,right,1.4404840469360352,476030,
2,27,False,left,left,0.4428699016571045,476030,
2,28,False,left,left,0.5491259098052979,476030,
2,29,False,left,left,0.4692049026489258,476030,
2,30,False,left,left,0.7856428623199463,476030,
2,31,False,right,right,0.4789459705352783,476030,
2,32,True,right,right,1.3436410427093506,476030,
2,33,True,right,right,0.8317921161651611,476030,
2,34,True,right,left,1.293177843093872,476030,
2,35,True,right,left,1.0498619079589844,476030,
2,36,True,left,left,0.8068130016326904,476030,
2,37,False,right,right,1.1018271446228027,476030,
2,38,False,right,right,1.274609088897705,476030,
2,39,True,right,left,1.5256588459014893,476030,
2,40,False,right,right,1.4284710884094238,476030,
2,41,True,left,left,0.8913991451263428,476030,
2,42,True,left,left,0.7795100212097168,476030,
2,43,True,right,left,0.67842698097229,476030,
2,44,True,right,right,1.5800468921661377,476030,
2,45,True,left,left,1.410111904144287,476030,
2,46,False,right,right,0.974376916885376,476030,
2,47,False,right,right,1.0116868019104004,476030,
2,48,False,right,right,1.2703700065612793,476030,
2,49,False,right,right,1.2694170475006104,476030,
2,50,True,right,left,0.831773042678833,476030,
2,51,True,left,left,0.7603878974914551,476030,
2,52,True,left,left,0.798936128616333,476030,
2,53,True,left,left,1.0011770725250244,476030,
2,54,True,right,right,1.1448137760162354,476030,
2,55,True,left,left,0.9775781631469727,476030,
2,56,True,right,right,1.1393530368804932,476030,
2,57,True,left,left,1.0386550426483154,476030,
2,58,False,right,right,1.160215139389038,476030,
2,59,False,left,left,0.569598913192749,476030,
2,60,False,left,left,0.44104504585266113,476030,
2,61,True,left,right,1.214858055114746,476030,
2,62,False,left,left,0.5987191200256348,476030,
2,63,False,right,right,1.1524391174316406,476030,
2,64,True,right,left,0.959975004196167,476030,
2,65,False,right,right,1.1226999759674072,476030,
2,66,True,left,right,1.469641923904419,476030,
2,67,True,left,left,0.8281559944152832,476030,
2,68,False,left,left,0.6680591106414795,476030,
2,69,False,left,left,0.718238115310669,476030,
2,70,False,right,right,1.041187047958374,476030,
2,71,True,left,left,0.9545900821685791,476030,
2,72,True,right,right,0.9630498886108398,476030,
2,73,True,left,left,1.2837941646575928,476030,
2,74,True,right,right,0.8690769672393799,476030,
2,75,True,left,left,1.166727066040039,476030,
2,76,False,left,left,0.657027006149292,476030,
2,77,True,left,right,1.3854320049285889,476030,
2,78,False,left,left,1.0999891757965088,476030,
2,79,False,right,right,1.2561321258544922,476030,
2,80,True,right,left,0.8878657817840576,476030,
2,81,True,right,right,1.232517957687378,476030,
2,82,True,left,right,1.6300787925720215,476030,
2,83,False,right,right,1.5279481410980225,476030,
2,84,True,left,left,1.1388399600982666,476030,
2,85,True,right,left,1.0015630722045898,476030,
2,86,True,left,left,0.9583079814910889,476030,
2,87,True,left,right,0.7674698829650879,476030,
2,88,True,right,right,0.9030089378356934,476030,
2,89,False,left,left,0.652061939239502,476030,
2,90,True,right,right,0.9442169666290283,476030,
2,91,True,right,left,1.0799400806427002,476030,
2,92,False,right,right,1.0061228275299072,476030,
2,93,False,left,left,1.0775139331817627,476030,
2,94,True,left,left,0.9061391353607178,476030,
2,95,False,right,right,0.8522441387176514,476030,
2,96,True,right,right,0.9770481586456299,476030,
2,97,True,right,right,0.8861570358276367,476030,
2,98,False,right,right,1.1837618350982666,476030,
2,99,True,right,right,0.8927099704742432,476030,
3,0,True,right,right,0.9930779933929443,476030,
3,1,False,left,left,0.659965991973877,476030,
3,2,True,right,right,0.83477783203125,476030,
3,3,True,right,right,0.9557530879974365,476030,
3,4,True,left,left,1.1955318450927734,476030,
3,5,True,left,right,0.7390239238739014,476030,
3,6,False,right,right,1.0759811401367188,476030,
3,7,False,left,left,0.771125078201294,476030,
3,8,True,left,right,1.375478982925415,476030,
3,9,True,right,right,1.1481690406799316,476030,
3,10,False,right,right,1.0669639110565186,476030,
3,11,False,right,left,1.3212549686431885,476030,
3,12,False,left,left,0.7009091377258301,476030,
3,13,True,left,left,2.0086867809295654,476030,
3,14,False,right,right,1.6838929653167725,476030,
3,15,True,left,left,0.7135860919952393,476030,
3,16,False,right,right,1.0848770141601562,476030,
3,17,False,left,left,0.7083010673522949,476030,
3,18,False,right,right,1.1565229892730713,476030,
3,19,True,right,left,1.3593120574951172,476030,
3,20,False,left,left,0.5661089420318604,476030,
3,21,False,left,left,0.5678768157958984,476030,
3,22,True,right,right,0.7206029891967773,476030,
3,23,False,left,left,0.5070321559906006,476030,
3,24,True,left,right,1.4033339023590088,476030,
3,25,False,right,right,0.875175952911377,476030,
3,26,False,left,left,0.6911249160766602,476030,
3,27,True,right,right,1.4060919284820557,476030,
3,28,False,right,right,1.242480993270874,476030,
3,29,False,left,left,0.6159830093383789,476030,
3,30,True,left,right,1.323293924331665,476030,
3,31,True,right,left,1.496117115020752,476030,
3,32,True,right,left,1.0789439678192139,476030,
3,33,False,left,left,0.5788419246673584,476030,
3,34,True,right,right,1.0312700271606445,476030,
3,35,False,right,right,1.077519178390503,476030,
3,36,True,right,right,1.1597509384155273,476030,
3,37,True,right,left,2.6193900108337402,476030,
3,38,False,left,left,0.5975189208984375,476030,
3,39,True,left,left,0.9760429859161377,476030,
3,40,False,right,right,0.9560220241546631,476030,
3,41,True,left,left,0.596674919128418,476030,
3,42,True,left,left,0.7157490253448486,476030,
3,43,False,left,left,0.8135309219360352,476030,
3,44,True,left,left,0.6284661293029785,476030,
3,45,False,left,left,0.5001680850982666,476030,
3,46,True,right,right,1.0230472087860107,476030,
3,47,False,right,right,1.011457920074463,476030,
3,48,True,right,right,1.1322448253631592,476030,
3,49,False,left,left,0.529447078704834,476030,
3,50,False,right,right,1.1846158504486084,476030,
3,51,False,right,right,1.2451691627502441,476030,
3,52,False,left,left,0.5830659866333008,476030,
3,53,False,right,right,0.9774918556213379,476030,
3,54,True,right,left,1.569394826889038,476030,
3,55,False,left,left,0.6460750102996826,476030,
3,56,False,left,left,0.5697269439697266,476030,
3,57,False,left,left,0.997122049331665,476030,
3,58,True,left,right,1.0971529483795166,476030,
3,59,True,left,right,1.1009318828582764,476030,
3,60,True,right,right,1.04488205909729,476030,
3,61,True,right,left,1.1639509201049805,476030,
3,62,False,left,left,0.7839689254760742,476030,
3,63,False,left,right,1.1020410060882568,476030,
3,64,True,right,right,1.220149040222168,476030,
3,65,False,left,left,0.9126808643341064,476030,
3,66,False,right,right,1.2625620365142822,476030,
3,67,False,left,left,0.6445481777191162,476030,
3,68,False,left,left,0.5817389488220215,476030,
3,69,False,left,left,0.6253190040588379,476030,
3,70,False,left,left,0.5544989109039307,476030,
3,71,False,left,left,0.9295098781585693,476030,
3,72,True,right,right,1.2416059970855713,476030,
3,73,True,left,right,1.138606071472168,476030,
3,74,True,right,left,1.0744738578796387,476030,
3,75,False,right,right,1.1240410804748535,476030,
3,76,False,right,right,1.188359022140503,476030,
3,77,False,right,left,1.2489070892333984,476030,
3,78,False,right,right,1.209233045578003,476030,
3,79,False,left,left,0.7189681529998779,476030,
3,80,True,right,right,1.373110055923462,476030,
3,81,True,right,right,2.0699269771575928,476030,
3,82,False,left,left,0.7029309272766113,476030,
3,83,True,right,right,1.737333059310913,476030,
3,84,False,right,right,1.0681278705596924,476030,
3,85,True,left,left,1.0515320301055908,476030,
3,86,True,left,left,0.875917911529541,476030,
3,87,True,left,right,1.1274499893188477,476030,
3,88,True,left,left,0.8235809803009033,476030,
3,89,False,left,left,1.0302839279174805,476030,
3,90,True,left,left,0.8013319969177246,476030,
3,91,True,left,left,0.7623298168182373,476030,
3,92,True,right,right,0.8621671199798584,476030,
3,93,True,right,left,1.234848976135254,476030,
3,94,True,right,right,0.9511299133300781,476030,
3,95,True,right,right,0.6737239360809326,476030,
3,96,False,right,right,0.9096829891204834,476030,
3,97,False,right,left,1.114130973815918,476030,
3,98,True,right,right,0.924177885055542,476030,
3,99,False,left,left,0.848046064376831,476030,
4,0,True,left,left,1.2445499897003174,476030,
4,1,False,left,left,1.0383689403533936,476030,
4,2,True,right,left,1.0587780475616455,476030,
4,3,False,right,right,0.9710471630096436,476030,
4,4,False,left,left,0.97365403175354,476030,
4,5,False,left,left,0.9427750110626221,476030,
4,6,True,right,right,0.7841341495513916,476030,
4,7,True,right,left,0.5805151462554932,476030,
4,8,False,left,right,1.1173269748687744,476030,
4,9,True,left,left,1.0964910984039307,476030,
4,10,False,right,right,1.1550250053405762,476030,
4,11,True,left,left,0.7951991558074951,476030,
4,12,True,left,left,1.345566987991333,476030,
4,13,False,right,right,0.8766200542449951,476030,
4,14,True,left,right,0.995110034942627,476030,
4,15,True,right,left,0.8058280944824219,476030,
4,16,False,right,right,1.0936789512634277,476030,
4,17,False,left,left,0.6233129501342773,476030,
4,18,True,left,left,1.5669939517974854,476030,
4,19,True,right,right,1.6346428394317627,476030,
4,20,True,left,left,1.1059670448303223,476030,
4,21,False,right,right,0.7530019283294678,476030,
4,22,True,left,left,3.4322900772094727,476030,
4,23,True,right,left,2.009014844894409,476030,
4,24,False,left,right,0.16581988334655762,476030,
4,25,True,right,right,0.7142541408538818,476030,
4,26,True,left,right,0.6924920082092285,476030,
4,27,False,right,right,1.1044888496398926,476030,
4,28,False,left,left,0.6783208847045898,476030,
4,29,True,right,right,0.8784871101379395,476030,
4,30,True,left,left,0.6747260093688965,476030,
4,31,True,right,right,0.6500208377838135,476030,
4,32,True,left,right,0.707103967666626,476030,
4,33,False,right,right,1.0476739406585693,476030,
4,34,False,right,left,1.348435878753662,476030,
4,35,False,right,right,1.1062238216400146,476030,
4,36,False,left,left,0.8313190937042236,476030,
4,37,False,right,right,1.2690579891204834,476030,
4,38,False,right,right,0.9004590511322021,476030,
4,39,True,right,right,0.9781851768493652,476030,
4,40,True,left,left,1.104266881942749,476030,
4,41,True,right,left,1.5021090507507324,476030,
4,42,True,right,right,0.8412160873413086,476030,
4,43,True,left,left,1.1588809490203857,476030,
4,44,False,left,left,0.9994261264801025,476030,
4,45,True,right,left,1.3399608135223389,476030,
4,46,False,left,left,1.33319091796875,476030,
4,47,True,right,left,0.9080541133880615,476030,
4,48,True,right,left,1.53245210647583,476030,
4,49,True,left,left,0.7674868106842041,476030,
4,50,True,left,left,0.6703920364379883,476030,
4,51,True,left,left,0.7136931419372559,476030,
4,52,True,left,right,0.7447271347045898,476030,
4,53,True,right,left,0.9480690956115723,476030,
4,54,True,left,left,0.8734500408172607,476030,
4,55,True,left,right,0.9350090026855469,476030,
4,56,False,right,right,0.849174976348877,476030,
4,57,True,right,right,1.2430429458618164,476030,
4,58,True,right,left,0.6747581958770752,476030,
4,59,False,right,right,1.2606208324432373,476030,
4,60,False,right,right,1.2141211032867432,476030,
4,61,True,right,right,0.8405067920684814,476030,
4,62,False,left,left,0.7682428359985352,476030,
4,63,False,right,right,0.9349899291992188,476030,
4,64,False,right,right,0.8400840759277344,476030,
4,65,False,right,right,0.8037469387054443,476030,
4,66,False,right,right,1.2401139736175537,476030,
4,67,False,right,right,1.2050909996032715,476030,
4,68,True,left,left,0.8199071884155273,476030,
4,69,False,left,left,0.8258709907531738,476030,
4,70,True,left,left,0.8141160011291504,476030,
4,71,False,left,left,0.5521578788757324,476030,
4,72,True,right,right,1.301926851272583,476030,
4,73,False,left,left,0.8733620643615723,476030,
4,74,True,left,left,1.2469360828399658,476030,
4,75,True,right,right,1.3658008575439453,476030,
4,76,False,right,right,1.0018031597137451,476030,
4,77,True,right,right,0.8249509334564209,476030,
4,78,False,right,left,1.1743149757385254,476030,
4,79,True,left,left,0.8881280422210693,476030,
4,80,False,right,right,0.9243311882019043,476030,
4,81,True,right,right,0.7586910724639893,476030,
4,82,True,left,left,0.643671989440918,476030,
4,83,True,left,left,0.9795691967010498,476030,
4,84,True,right,right,1.2998371124267578,476030,
4,85,True,left,left,0.890172004699707,476030,
4,86,True,left,left,1.1291840076446533,476030,
4,87,False,right,right,0.88543701171875,476030,
4,88,True,left,left,0.7248499393463135,476030,
4,89,False,left,left,0.7472679615020752,476030,
4,90,False,right,right,0.771571159362793,476030,
4,91,True,right,left,1.2960898876190186,476030,
4,92,True,left,left,0.6701250076293945,476030,
4,93,False,left,left,1.0385370254516602,476030,
4,94,True,left,left,0.6171450614929199,476030,
4,95,False,left,left,0.6048099994659424,476030,
4,96,True,left,right,1.8949341773986816,476030,
4,97,False,left,left,0.8973679542541504,476030,
4,98,True,right,left,1.114495038986206,476030,
4,99,False,left,left,0.6732611656188965,476030,
5,0,False,left,left,0.47029590606689453,476030,
5,1,True,right,right,1.4453511238098145,476030,
5,2,False,left,left,0.5070488452911377,476030,
5,3,False,left,left,0.7378830909729004,476030,
5,4,True,left,right,0.7075221538543701,476030,
5,5,True,right,right,0.9183528423309326,476030,
5,6,False,left,left,0.9852139949798584,476030,
5,7,False,left,left,0.8163599967956543,476030,
5,8,True,right,left,1.4274260997772217,476030,
5,9,True,right,right,1.3756520748138428,476030,
5,10,True,left,left,1.6550648212432861,476030,
5,11,False,right,right,0.9477839469909668,476030,
5,12,True,left,left,1.3166019916534424,476030,
5,13,False,left,left,0.959845781326294,476030,
5,14,False,left,left,0.6242380142211914,476030,
5,15,False,right,right,0.6562719345092773,476030,
5,16,True,right,right,0.9743640422821045,476030,
5,17,False,left,left,0.9641590118408203,476030,
5,18,False,right,right,0.8977360725402832,476030,
5,19,True,right,left,1.2403931617736816,476030,
5,20,False,left,left,0.85365891456604,476030,
5,21,True,right,right,1.5574779510498047,476030,
5,22,True,right,left,1.6028070449829102,476030,
5,23,True,right,right,1.0403509140014648,476030,
5,24,True,right,right,0.6859109401702881,476030,
5,25,True,left,left,0.6968238353729248,476030,
5,26,True,left,right,0.9701411724090576,476030,
5,27,False,left,left,0.8225791454315186,476030,
5,28,True,right,right,1.1190900802612305,476030,
5,29,True,left,left,1.1364758014678955,476030,
5,30,True,left,right,1.4778399467468262,476030,
5,31,False,left,left,0.6274371147155762,476030,
5,32,True,right,left,1.4065001010894775,476030,
5,33,False,left,left,1.0829038619995117,476030,
5,34,False,left,left,0.9994399547576904,476030,
5,35,True,right,right,1.4674639701843262,476030,
5,36,True,right,left,1.1652488708496094,476030,
5,37,True,left,left,1.6193580627441406,476030,
5,38,False,left,left,0.8098759651184082,476030,
5,39,False,right,right,0.875784158706665,476030,
5,40,False,right,right,0.657371997833252,476030,
5,41,False,left,left,0.6240980625152588,476030,
5,42,True,right,right,1.0037190914154053,476030,
5,43,True,right,right,0.774893045425415,476030,
5,44,False,right,right,1.000380039215088,476030,
5,45,True,right,right,1.3177809715270996,476030,
5,46,True,right,right,0.9210481643676758,476030,
5,47,False,right,right,1.1661529541015625,476030,
5,48,True,right,right,1.116779088973999,476030,
5,49,True,right,right,1.0389318466186523,476030,
5,50,True,left,left,1.0129578113555908,476030,
5,51,False,right,right,1.0200879573822021,476030,
5,52,True,left,left,0.8076601028442383,476030,
5,53,False,right,right,1.4182288646697998,476030,
5,54,True,left,left,0.7232179641723633,476030,
5,55,False,right,right,0.6827671527862549,476030,
5,56,True,left,right,1.683070182800293,476030,
5,57,False,left,left,1.0823650360107422,476030,
5,58,True,left,left,1.0435490608215332,476030,
5,59,True,left,left,1.2704899311065674,476030,
5,60,False,left,left,0.7308700084686279,476030,
5,61,False,right,left,0.6898181438446045,476030,
5,62,False,right,right,0.6491789817810059,476030,
5,63,False,right,right,0.761756181716919,476030,
5,64,True,right,left,0.8585689067840576,476030,
5,65,False,left,left,0.7277560234069824,476030,
5,66,False,right,right,0.9252450466156006,476030,
5,67,False,right,right,1.0826780796051025,476030,
5,68,True,left,right,1.229506015777588,476030,
5,69,False,left,left,0.9281771183013916,476030,
5,70,True,left,left,1.6747839450836182,476030,
5,71,True,left,right,1.4697749614715576,476030,
5,72,True,left,right,1.0115890502929688,476030,
5,73,True,right,right,1.3430149555206299,476030,
5,74,True,left,left,0.9405059814453125,476030,
5,75,False,left,left,0.8864259719848633,476030,
5,76,False,right,right,0.5439748764038086,476030,
5,77,True,right,left,1.1605751514434814,476030,
5,78,True,left,left,0.8063540458679199,476030,
5,79,True,left,right,0.9839432239532471,476030,
5,80,True,right,right,0.8163230419158936,476030,
5,81,False,left,left,0.5985391139984131,476030,
5,82,False,left,left,0.4836690425872803,476030,
5,83,False,right,right,0.7156660556793213,476030,
5,84,False,left,left,0.8768529891967773,476030,
5,85,True,right,right,0.8525691032409668,476030,
5,86,True,left,right,0.7552909851074219,476030,
5,87,False,right,right,0.8211100101470947,476030,
5,88,True,left,left,1.0936942100524902,476030,
5,89,True,right,right,1.1697759628295898,476030,
5,90,False,left,left,0.4369778633117676,476030,
5,91,True,right,right,1.4495739936828613,476030,
5,92,False,right,right,1.3521499633789062,476030,
5,93,False,left,left,1.5770361423492432,476030,
5,94,False,right,right,1.417456865310669,476030,
5,95,True,left,left,0.9153189659118652,476030,
5,96,False,right,right,0.8227770328521729,476030,
5,97,True,left,right,1.4952459335327148,476030,
5,98,False,right,right,0.6131160259246826,476030,
5,99,False,right,right,0.9256398677825928,476030,
6,0,True,left,left,0.917809009552002,476030,
6,1,False,left,left,0.7673580646514893,476030,
6,2,False,left,right,1.1196799278259277,476030,
6,3,True,right,right,0.6187329292297363,476030,
6,4,False,right,right,1.1202609539031982,476030,
6,5,True,right,left,1.063126802444458,476030,
6,6,True,left,right,0.905066967010498,476030,
6,7,False,right,right,0.7639279365539551,476030,
6,8,True,right,left,1.789417028427124,476030,
6,9,False,left,left,0.5099048614501953,476030,
6,10,True,left,right,0.8314828872680664,476030,
6,11,True,right,right,0.8011949062347412,476030,
6,12,False,left,left,0.5355558395385742,476030,
6,13,True,left,left,1.0384271144866943,476030,
6,14,False,right,right,0.9147510528564453,476030,
6,15,True,left,right,0.5511419773101807,476030,
6,16,False,left,left,0.6853008270263672,476030,
6,17,True,right,left,0.7291669845581055,476030,
6,18,True,left,left,0.6409380435943604,476030,
6,19,False,right,right,0.7915301322937012,476030,
6,20,False,right,right,1.192789077758789,476030,
6,21,False,right,right,0.736274003982544,476030,
6,22,True,left,left,0.7614660263061523,476030,
6,23,True,left,left,0.5945789813995361,476030,
6,24,True,right,right,0.8984739780426025,476030,
6,25,False,right,right,0.8311460018157959,476030,
6,26,False,left,left,0.7070779800415039,476030,
6,27,True,right,left,1.1068801879882812,476030,
6,28,True,left,left,0.8162698745727539,476030,
6,29,True,right,right,0.8419711589813232,476030,
6,30,False,left,left,0.7133979797363281,476030,
6,31,True,left,left,0.9643800258636475,476030,
6,32,True,left,right,0.7708370685577393,476030,
6,33,True,right,left,0.9151921272277832,476030,
6,34,False,right,right,1.1868751049041748,476030,
6,35,False,right,left,1.2210922241210938,476030,
6,36,True,right,left,1.0620501041412354,476030,
6,37,True,left,left,0.9556849002838135,476030,
6,38,True,left,left,0.7532720565795898,476030,
6,39,False,left,left,0.706475019454956,476030,
6,40,False,right,right,0.5014309883117676,476030,
6,41,True,right,right,1.0107359886169434,476030,
6,42,False,right,right,0.6611700057983398,476030,
6,43,False,left,left,0.5667510032653809,476030,
6,44,True,right,right,0.9632909297943115,476030,
6,45,False,left,left,1.0966308116912842,476030,
6,46,True,right,right,0.7235889434814453,476030,
6,47,True,right,right,0.9361569881439209,476030,
6,48,True,left,left,0.7168641090393066,476030,
6,49,False,left,left,0.6258339881896973,476030,
6,50,True,right,left,0.7616910934448242,476030,
6,51,True,left,left,0.8306899070739746,476030,
6,52,False,left,left,0.8215980529785156,476030,
6,53,True,right,left,0.7769169807434082,476030,
6,54,False,right,right,1.0413739681243896,476030,
6,55,True,right,left,0.7287518978118896,476030,
6,56,True,left,left,1.0420479774475098,476030,
6,57,False,right,right,1.1666109561920166,476030,
6,58,True,left,left,1.0218122005462646,476030,
6,59,True,right,left,1.9033799171447754,476030,
6,60,False,left,left,0.8745810985565186,476030,
6,61,True,right,right,1.1353390216827393,476030,
6,62,True,left,left,1.4523320198059082,476030,
6,63,False,right,right,0.6298480033874512,476030,
6,64,False,left,left,1.0703439712524414,476030,
6,65,True,right,right,0.915687084197998,476030,
6,66,True,right,left,0.7203719615936279,476030,
6,67,True,left,left,0.9149081707000732,476030,
6,68,True,left,left,0.7762999534606934,476030,
6,69,True,left,right,1.0265419483184814,476030,
6,70,True,left,left,0.9394938945770264,476030,
6,71,False,left,left,0.6491680145263672,476030,
6,72,False,right,right,0.5074560642242432,476030,
6,73,False,right,right,0.5797379016876221,476030,
6,74,True,right,right,1.503770112991333,476030,
6,75,False,left,left,0.4541199207305908,476030,
6,76,False,left,left,0.7189769744873047,476030,
6,77,True,right,right,1.0780880451202393,476030,
6,78,True,right,left,0.6105999946594238,476030,
6,79,True,left,left,0.5713150501251221,476030,
6,80,True,right,right,0.8735771179199219,476030,
6,81,True,right,right,0.6461608409881592,476030,
6,82,True,right,right,0.8435039520263672,476030,
6,83,True,left,left,0.7044980525970459,476030,
6,84,False,left,left,0.4845540523529053,476030,
6,85,False,right,right,0.6817419528961182,476030,
6,86,False,left,left,0.577427864074707,476030,
6,87,False,right,right,0.6374549865722656,476030,
6,88,False,right,right,0.52435302734375,476030,
6,89,False,right,right,0.5231261253356934,476030,
6,90,True,right,left,0.8326961994171143,476030,
6,91,True,left,right,1.5705180168151855,476030,
6,92,False,left,left,0.941431999206543,476030,
6,93,False,left,left,0.6060760021209717,476030,
6,94,False,left,left,0.5622999668121338,476030,
6,95,False,right,right,0.517470121383667,476030,
6,96,True,left,left,0.6011078357696533,476030,
6,97,False,right,right,0.4693620204925537,476030,
6,98,True,left,left,1.2193331718444824,476030,
6,99,False,left,left,0.5141639709472656,476030,
7,0,True,right,right,1.2012710571289062,476030,
7,1,False,right,right,0.5213289260864258,476030,
7,2,True,right,right,1.6233289241790771,476030,
7,3,True,left,left,1.2188310623168945,476030,
7,4,True,right,right,1.582705020904541,476030,
7,5,False,left,left,0.8355000019073486,476030,
7,6,False,left,left,0.4793589115142822,476030,
7,7,False,right,right,0.791050910949707,476030,
7,8,False,left,left,0.6297478675842285,476030,
7,9,True,right,right,1.4473350048065186,476030,
7,10,True,right,left,1.5739941596984863,476030,
7,11,False,right,right,0.4827880859375,476030,
7,12,True,right,left,1.3701279163360596,476030,
7,13,False,left,left,0.5245029926300049,476030,
7,14,True,right,right,1.7396550178527832,476030,
7,15,True,right,right,1.2610712051391602,476030,
7,16,True,left,left,1.2904951572418213,476030,
7,17,True,left,left,0.8228099346160889,476030,
7,18,True,right,right,0.7781009674072266,476030,
7,19,True,left,left,0.6042768955230713,476030,
7,20,False,right,right,0.5171558856964111,476030,
7,21,True,left,right,1.2118089199066162,476030,
7,22,True,right,right,0.7842180728912354,476030,
7,23,True,left,left,1.3729679584503174,476030,
7,24,True,left,right,1.0145049095153809,476030,
7,25,False,left,left,0.6369829177856445,476030,
7,26,False,right,right,0.5433940887451172,476030,
7,27,True,right,right,1.220184087753296,476030,
7,28,True,right,left,1.0659630298614502,476030,
7,29,False,left,left,0.6663780212402344,476030,
7,30,True,right,right,0.8912811279296875,476030,
7,31,True,right,left,1.4369149208068848,476030,
7,32,True,left,left,0.7994828224182129,476030,
7,33,True,right,right,1.0509910583496094,476030,
7,34,False,right,right,0.623986005783081,476030,
7,35,False,left,left,0.5416321754455566,476030,
7,36,True,right,right,0.9108390808105469,476030,
7,37,True,left,left,0.6141431331634521,476030,
7,38,True,right,right,0.5852570533752441,476030,
7,39,False,left,left,0.6478300094604492,476030,
7,40,False,right,right,0.6240639686584473,476030,
7,41,False,right,right,0.509289026260376,476030,
7,42,False,right,right,0.47858691215515137,476030,
7,43,False,left,left,0.5818932056427002,476030,
7,44,True,right,right,0.5906839370727539,476030,
7,45,False,left,left,0.36207008361816406,476030,
7,46,True,left,right,0.889786958694458,476030,
7,47,False,right,right,0.6096739768981934,476030,
7,48,False,left,left,0.37642693519592285,476030,
7,49,True,left,right,1.002227783203125,476030,
7,50,False,right,right,0.7513539791107178,476030,
7,51,True,right,right,1.4035060405731201,476030,
7,52,True,right,right,0.6926100254058838,476030,
7,53,False,left,left,0.6322879791259766,476030,
7,54,False,left,left,0.41183900833129883,476030,
7,55,False,left,left,0.41708803176879883,476030,
7,56,False,right,right,0.5488178730010986,476030,
7,57,True,left,right,1.0086469650268555,476030,
7,58,True,left,left,0.8185679912567139,476030,
7,59,False,right,right,0.5970909595489502,476030,
7,60,False,left,left,0.5607459545135498,476030,
7,61,False,left,left,0.851639986038208,476030,
7,62,False,left,left,0.46361303329467773,476030,
7,63,True,left,right,1.0685608386993408,476030,
7,64,True,right,right,0.7072899341583252,476030,
7,65,True,right,right,0.7025899887084961,476030,
7,66,False,right,right,0.9510641098022461,476030,
7,67,False,right,right,0.9712488651275635,476030,
7,68,False,left,left,0.6747980117797852,476030,
7,69,False,right,right,0.9462928771972656,476030,
7,70,True,left,left,0.7331640720367432,476030,
7,71,False,left,right,0.8463809490203857,476030,
7,72,False,right,right,0.7905490398406982,476030,
7,73,True,left,left,0.6239879131317139,476030,
7,74,True,left,left,0.5758500099182129,476030,
7,75,False,right,right,0.6788098812103271,476030,
7,76,True,left,left,0.8236091136932373,476030,
7,77,False,right,right,0.8078298568725586,476030,
7,78,True,left,left,0.6019279956817627,476030,
7,79,True,left,left,0.6792550086975098,476030,
7,80,False,left,left,1.0323939323425293,476030,
7,81,False,left,right,1.0222079753875732,476030,
7,82,False,right,right,0.5213828086853027,476030,
7,83,False,right,right,1.1442210674285889,476030,
7,84,True,left,left,0.8069322109222412,476030,
7,85,False,right,right,0.658134937286377,476030,
7,86,True,left,left,0.5398318767547607,476030,
7,87,True,right,left,1.6303930282592773,476030,
7,88,False,left,left,1.2341468334197998,476030,
7,89,True,left,left,0.9468801021575928,476030,
7,90,True,right,left,0.9070031642913818,476030,
7,91,False,left,left,0.5186429023742676,476030,
7,92,False,left,right,0.9944260120391846,476030,
7,93,False,right,right,0.6201939582824707,476030,
7,94,False,left,left,0.7616019248962402,476030,
7,95,True,right,right,1.0984139442443848,476030,
7,96,False,left,left,0.7691469192504883,476030,
7,97,False,left,right,1.0770862102508545,476030,
7,98,True,right,right,1.366361141204834,476030,
7,99,True,right,right,1.1239209175109863,476030,
8,0,False,right,right,1.0073790550231934,476030,
8,1,True,left,right,0.6498990058898926,476030,
8,2,False,right,right,1.001939058303833,476030,
8,3,False,left,left,0.5691008567810059,476030,
8,4,True,left,right,1.0958130359649658,476030,
8,5,True,right,right,0.8244719505310059,476030,
8,6,True,left,left,0.9751801490783691,476030,
8,7,True,left,left,0.5950570106506348,476030,
8,8,False,right,right,0.7928907871246338,476030,
8,9,False,left,left,0.6262359619140625,476030,
8,10,False,left,left,0.561743974685669,476030,
8,11,True,right,right,0.733734130859375,476030,
8,12,True,left,left,0.6742467880249023,476030,
8,13,True,right,right,0.73124098777771,476030,
8,14,False,right,right,0.6168279647827148,476030,
8,15,False,right,right,0.5385839939117432,476030,
8,16,False,left,left,0.5742831230163574,476030,
8,17,True,right,right,0.7969050407409668,476030,
8,18,False,left,left,0.6361620426177979,476030,
8,19,True,right,right,0.9282200336456299,476030,
8,20,True,left,left,0.8206319808959961,476030,
8,21,True,right,right,0.8502819538116455,476030,
8,22,False,right,right,0.7587890625,476030,
8,23,True,left,left,0.6550190448760986,476030,
8,24,True,left,left,0.50856614112854,476030,
8,25,True,left,left,0.6891279220581055,476030,
8,26,False,left,left,0.9529120922088623,476030,
8,27,True,right,left,2.3170878887176514,476030,
8,28,False,left,left,0.5999279022216797,476030,
8,29,False,left,right,0.8693530559539795,476030,
8,30,True,left,left,1.1420488357543945,476030,
8,31,False,left,right,0.8647661209106445,476030,
8,32,False,right,right,0.6283531188964844,476030,
8,33,False,left,left,0.854686975479126,476030,
8,34,False,right,right,0.9024748802185059,476030,
8,35,False,right,right,0.580590009689331,476030,
8,36,False,left,left,0.6687891483306885,476030,
8,37,False,right,right,0.6347129344940186,476030,
8,38,False,left,left,0.5077250003814697,476030,
8,39,False,left,left,0.4240450859069824,476030,
8,40,False,right,right,0.5175459384918213,476030,
8,41,True,left,left,0.9300308227539062,476030,
8,42,True,left,right,0.9435179233551025,476030,
8,43,False,right,right,0.709679126739502,476030,
8,44,True,right,right,1.0624330043792725,476030,
8,45,True,left,left,0.763232946395874,476030,
8,46,True,right,left,1.227829933166504,476030,
8,47,True,right,right,1.5012180805206299,476030,
8,48,True,left,left,0.6899900436401367,476030,
8,49,True,right,left,0.7416219711303711,476030,
8,50,False,left,left,0.8937270641326904,476030,
8,51,True,right,right,0.8056008815765381,476030,
8,52,False,left,left,0.6940100193023682,476030,
8,53,False,right,right,0.8077199459075928,476030,
8,54,False,right,right,0.6736660003662109,476030,
8,55,True,right,left,1.5029301643371582,476030,
8,56,True,right,right,0.8726680278778076,476030,
8,57,True,right,left,1.188101053237915,476030,
8,58,True,left,left,0.6462180614471436,476030,
8,59,True,right,left,0.7678971290588379,476030,
8,60,True,right,left,0.6243648529052734,476030,
8,61,True,left,left,0.9172658920288086,476030,
8,62,True,right,left,0.6516330242156982,476030,
8,63,False,left,left,0.8604838848114014,476030,
8,64,False,right,right,0.7098500728607178,476030,
8,65,True,left,left,1.051882028579712,476030,
8,66,True,left,left,0.660520076751709,476030,
8,67,False,left,left,1.2050180435180664,476030,
8,68,False,right,right,0.8878090381622314,476030,
8,69,True,left,left,0.673335075378418,476030,
8,70,False,right,right,0.8123538494110107,476030,
8,71,False,left,left,0.9307539463043213,476030,
8,72,True,right,right,0.5734021663665771,476030,
8,73,False,right,right,0.7481961250305176,476030,
8,74,False,left,left,0.9082069396972656,476030,
8,75,False,left,left,0.8257439136505127,476030,
8,76,True,right,right,0.6031429767608643,476030,
8,77,True,right,right,1.2435429096221924,476030,
8,78,False,right,right,0.6320550441741943,476030,
8,79,False,left,left,0.5364429950714111,476030,
8,80,False,right,right,0.49216580390930176,476030,
8,81,False,left,left,0.44728899002075195,476030,
8,82,False,right,right,0.5708401203155518,476030,
8,83,True,left,right,0.9918010234832764,476030,
8,84,False,right,right,0.897266149520874,476030,
8,85,True,right,right,1.4471020698547363,476030,
8,86,True,right,right,1.1277029514312744,476030,
8,87,True,right,right,0.9130840301513672,476030,
8,88,False,left,left,1.172583818435669,476030,
8,89,True,left,left,1.3633959293365479,476030,
8,90,True,right,right,1.7975339889526367,476030,
8,91,False,left,left,1.034369945526123,476030,
8,92,False,left,left,0.6691200733184814,476030,
8,93,True,right,right,0.734868049621582,476030,
8,94,True,left,left,1.0453479290008545,476030,
8,95,False,right,right,0.5987820625305176,476030,
8,96,True,left,left,0.8843178749084473,476030,
8,97,False,right,right,0.6527760028839111,476030,
8,98,False,left,right,1.1561319828033447,476030,
8,99,False,left,right,1.3903231620788574,476030,
9,0,True,left,right,0.8655421733856201,476030,
9,1,True,left,left,0.5905680656433105,476030,
9,2,False,right,right,1.7792911529541016,476030,
9,3,False,right,right,0.8680360317230225,476030,
9,4,True,left,left,0.6396870613098145,476030,
9,5,False,right,right,0.5664939880371094,476030,
9,6,False,left,left,1.305082082748413,476030,
9,7,False,right,right,0.8153631687164307,476030,
9,8,True,left,left,0.5366189479827881,476030,
9,9,False,right,right,0.5980010032653809,476030,
9,10,False,left,left,0.8798480033874512,476030,
9,11,True,right,right,0.6285581588745117,476030,
9,12,True,right,left,0.8389010429382324,476030,
9,13,True,right,right,0.6818728446960449,476030,
9,14,True,left,left,0.5488109588623047,476030,
9,15,True,right,right,0.6413829326629639,476030,
9,16,False,left,left,0.8280661106109619,476030,
9,17,True,right,right,0.8864519596099854,476030,
9,18,False,right,right,0.9430959224700928,476030,
9,19,True,left,left,1.075150966644287,476030,
9,20,True,right,right,0.8606948852539062,476030,
9,21,True,right,right,0.8548529148101807,476030,
9,22,True,left,left,1.0864150524139404,476030,
9,23,False,left,left,0.8763260841369629,476030,
9,24,True,right,left,0.7053098678588867,476030,
9,25,False,left,left,0.6212599277496338,476030,
9,26,True,left,left,0.7625348567962646,476030,
9,27,False,right,right,0.5149989128112793,476030,
9,28,True,left,right,0.8975110054016113,476030,
9,29,True,right,left,0.9738907814025879,476030,
9,30,False,left,left,0.9119369983673096,476030,
9,31,False,left,left,0.5436458587646484,476030,
9,32,False,left,left,0.6315958499908447,476030,
9,33,False,left,left,0.6613819599151611,476030,
9,34,False,right,right,0.5332880020141602,476030,
9,35,False,right,right,0.9582400321960449,476030,
9,36,False,right,right,1.1191108226776123,476030,
9,37,True,left,left,0.7103359699249268,476030,
9,38,False,right,right,0.5303928852081299,476030,
9,39,True,right,left,0.7724761962890625,476030,
9,40,False,left,left,1.081498146057129,476030,
9,41,True,left,left,0.6954119205474854,476030,
9,42,False,right,right,0.6416749954223633,476030,
9,43,True,right,left,0.6126160621643066,476030,
9,44,False,left,right,0.8957970142364502,476030,
9,45,False,right,right,2.4782140254974365,476030,
9,46,True,left,left,0.7105791568756104,476030,
9,47,False,left,left,0.9577939510345459,476030,
9,48,False,left,left,0.9798641204833984,476030,
9,49,True,left,right,0.5041439533233643,476030,
9,50,False,left,right,1.0748310089111328,476030,
9,51,False,right,right,0.7558588981628418,476030,
9,52,False,right,right,0.5210568904876709,476030,
9,53,False,right,right,0.5664629936218262,476030,
9,54,False,left,left,0.9526889324188232,476030,
9,55,True,right,left,1.1543638706207275,476030,
9,56,False,left,left,0.8943438529968262,476030,
9,57,False,left,left,0.6822130680084229,476030,
9,58,True,left,right,0.9683921337127686,476030,
9,59,True,left,right,1.5677969455718994,476030,
9,60,False,right,right,0.5244309902191162,476030,
9,61,False,left,left,0.6542458534240723,476030,
9,62,False,left,left,0.9330999851226807,476030,
9,63,False,right,right,0.6880819797515869,476030,
9,64,True,right,left,0.9071221351623535,476030,
9,65,False,right,right,0.5785520076751709,476030,
9,66,True,left,right,0.9978389739990234,476030,
9,67,True,left,right,0.8202099800109863,476030,
9,68,True,right,right,0.8712038993835449,476030,
9,69,True,left,left,0.7039718627929688,476030,
9,70,True,right,right,0.7153480052947998,476030,
9,71,False,left,left,0.7209651470184326,476030,
9,72,True,left,right,0.8788299560546875,476030,
9,73,False,right,right,0.6220018863677979,476030,
9,74,False,right,right,0.6376388072967529,476030,
9,75,False,right,right,1.0654869079589844,476030,
9,76,True,left,left,0.6174590587615967,476030,
9,77,True,left,right,1.0469729900360107,476030,
9,78,False,right,right,0.7393500804901123,476030,
9,79,True,right,right,1.0540680885314941,476030,
9,80,True,right,left,1.0767579078674316,476030,
9,81,True,right,left,1.01774001121521,476030,
9,82,False,left,left,1.0091228485107422,476030,
9,83,True,left,left,1.0156230926513672,476030,
9,84,True,right,right,1.118332862854004,476030,
9,85,True,right,left,0.938957929611206,476030,
9,86,False,left,left,0.7225499153137207,476030,
9,87,False,left,right,0.9871289730072021,476030,
9,88,False,left,right,0.8805079460144043,476030,
9,89,False,left,right,0.9561600685119629,476030,
9,90,True,right,right,0.7649209499359131,476030,
9,91,False,right,left,0.8787930011749268,476030,
9,92,False,right,right,0.6725621223449707,476030,
9,93,False,right,right,0.9493179321289062,476030,
9,94,False,right,left,1.2723147869110107,476030,
9,95,True,left,left,0.7112760543823242,476030,
9,96,False,right,right,0.9433197975158691,476030,
9,97,True,left,right,1.1340570449829102,476030,
9,98,False,left,left,0.8478689193725586,476030,
9,99,False,right,right,0.9470419883728027,476030,
