block,trial,s1_state,direction,response,rt,pair
0,0,FALSE,left,left,0.9820139408111572,268006
0,1,FALSE,right,left,0.7013180255889893,268006
0,2,FALSE,right,right,0.8755149841308594,268006
0,3,FALSE,right,right,0.8838348388671875,268006
0,4,FALSE,right,right,1.138592004776001,268006
0,5,TRUE,right,right,0.9841430187225342,268006
0,6,TRUE,right,right,0.731248140335083,268006
0,7,FALSE,right,right,0.7803330421447754,268006
0,8,TRUE,left,right,0.766726016998291,268006
0,9,FALSE,right,right,0.6773781776428223,268006
0,10,TRUE,right,left,0.8296220302581787,268006
0,11,FALSE,left,left,0.7296030521392822,268006
0,12,FALSE,left,left,0.6393070220947266,268006
0,13,FALSE,left,left,0.5259661674499512,268006
0,14,TRUE,left,left,0.5448770523071289,268006
0,15,TRUE,left,left,0.5362570285797119,268006
0,16,FALSE,left,left,0.789715051651001,268006
0,17,TRUE,left,right,0.70864105224609375,268006
0,18,FALSE,left,left,0.6638989448547363,268006
0,19,TRUE,right,right,0.8858411312103271,268006
0,20,FALSE,right,left,0.6177420616149902,268006
0,21,FALSE,left,left,0.787257194519043,268006
0,22,TRUE,left,right,0.98026704788208,268006
0,23,TRUE,right,right,0.9075920581817628,268006
0,24,TRUE,left,left,0.8907158374786377,268006
0,25,TRUE,left,left,1.174591064453125,268006
0,26,TRUE,right,right,0.9287221431732178,268006
0,27,FALSE,left,left,0.8505501747131348,268006
0,28,FALSE,right,right,0.7084298133850098,268006
0,29,TRUE,right,right,0.7222349643707275,268006
0,30,FALSE,left,left,0.8012969493865967,268006
0,31,FALSE,left,left,0.8497772216796875,268006
0,32,TRUE,left,right,1.2476739883422852,268006
0,33,TRUE,left,left,0.9161930084228516,268006
0,34,TRUE,right,left,0.7653419971466064,268006
0,35,FALSE,left,left,0.705664873123169,268006
0,36,FALSE,right,right,1.0370268821716309,268006
0,37,TRUE,left,right,0.8251299858093262,268006
0,38,TRUE,left,right,1.5181851387023926,268006
0,39,TRUE,left,left,0.890538215637207,268006
0,40,TRUE,right,right,1.2672090530395508,268006
0,41,TRUE,left,right,1.1240389347076416,268006
0,42,TRUE,left,right,1.1155281066894531,268006
0,43,TRUE,right,right,0.9698419570922852,268006
0,44,TRUE,right,left,1.3319029808044434,268006
0,45,FALSE,right,right,1.186697006225586,268006
0,46,TRUE,right,left,5.849543809890747,268006
0,47,TRUE,right,right,1.218682050704956,268006
0,48,FALSE,right,right,1.118591070175171,268006
0,49,TRUE,left,left,0.27974891662597656,268006
0,50,FALSE,left,left,0.8435459136962891,268006
0,51,FALSE,left,left,0.7630109786987305,268006
0,52,FALSE,left,left,0.6720747947692871,268006
0,53,TRUE,right,right,0.5896639823913574,268006
0,54,TRUE,left,right,0.44434404373168945,268006
0,55,FALSE,right,right,1.1725261211395264,268006
0,56,TRUE,left,right,0.8428258895874023,268006
0,57,FALSE,left,right,1.036221981048584,268006
0,58,FALSE,right,right,1.923749923706055,268006
0,59,FALSE,right,right,0.9263701438903807,268006
0,60,TRUE,left,right,0.6115179061889648,268006
0,61,TRUE,right,right,0.5762238502502441,268006
0,62,FALSE,right,right,0.807103157043457,268006
0,63,FALSE,left,left,0.6850337982177734,268006
0,64,TRUE,right,right,0.581671953201294,268006
0,65,FALSE,right,left,0.9357059001922609,268006
0,66,FALSE,right,right,0.6365799903869629,268006
0,67,FALSE,left,left,0.7614080905914307,268006
0,68,FALSE,left,left,0.64243316650390625,268006
0,69,TRUE,right,right,0.5852770805358887,268006
0,70,FALSE,left,left,0.6189050674438477,268006
0,71,FALSE,right,right,0.6470949649810791,268006
0,72,FALSE,right,right,0.7030560970306396,268006
0,73,TRUE,left,right,0.5166730880737305,268006
0,74,TRUE,right,left,0.6719350814819336,268006
0,75,TRUE,left,right,0.700718879699707,268006
0,76,TRUE,right,right,0.6501471996307373,268006
0,77,FALSE,right,left,0.7979748249053955,268006
0,78,TRUE,left,left,0.9805409908294678,268006
0,79,TRUE,right,right,0.9334368705749512,268006
0,80,TRUE,right,right,1.3069920539855957,268006
0,81,TRUE,left,left,1.0211730003356934,268006
0,82,FALSE,right,right,0.8188881874084473,268006
0,83,TRUE,right,right,0.6285800933837891,268006
0,84,TRUE,left,left,1.085216999053955,268006
0,85,TRUE,right,right,0.8697159290313721,268006
0,86,FALSE,left,left,0.6763019561767578,268006
0,87,FALSE,left,left,0.6160421371459961,268006
0,88,FALSE,left,left,0.6669559478759766,268006
0,89,FALSE,left,right,1.416100025177002,268006
0,90,FALSE,right,right,1.1545979976654053,268006
0,91,FALSE,right,right,1.1381258964538574,268006
0,92,TRUE,left,left,0.7341029644012451,268006
0,93,FALSE,right,right,0.9212589263916016,268006
0,94,TRUE,left,right,0.9201419353485109,268006
0,95,FALSE,left,right,1.5476689338684082,268006
0,96,TRUE,right,right,0.5139369964599609,268006
0,97,TRUE,right,left,0.5588328838348389,268006
0,98,TRUE,right,right,0.5550580024719238,268006
0,99,TRUE,left,right,0.629828929901123,268006
1,0,TRUE,left,right,0.77089691162109375,268006
1,1,TRUE,left,right,0.6010909080505371,268006
1,2,TRUE,left,right,0.5016319751739502,268006
1,3,TRUE,right,right,0.6001589298248291,268006
1,4,TRUE,left,right,0.39965009689331055,268006
1,5,TRUE,left,left,0.6813108921051025,268006
1,6,TRUE,right,left,0.6152369976043701,268006
1,7,FALSE,left,right,0.7317349910736084,268006
1,8,FALSE,left,left,0.5399129390716553,268006
1,9,TRUE,left,right,0.5430278778076172,268006
1,10,FALSE,left,left,0.527055025100708,268006
1,11,FALSE,right,right,1.0590109825134275,268006
1,12,TRUE,left,right,0.7261910438537598,268006
1,13,TRUE,right,right,0.6982560157775879,268006
1,14,TRUE,left,right,0.452193021774292,268006
1,15,TRUE,left,left,0.6188840866088867,268006
1,16,FALSE,right,right,0.5687849521636963,268006
1,17,TRUE,left,left,0.6074168682098389,268006
1,18,FALSE,right,right,0.599769115447998,268006
1,19,FALSE,right,right,0.4755208492279053,268006
1,20,FALSE,left,left,0.6465458869934082,268006
1,21,FALSE,left,left,0.8343539237976074,268006
1,22,TRUE,left,right,0.7339818477630615,268006
1,23,FALSE,left,left,0.5873539447784424,268006
1,24,FALSE,left,left,0.6956140995025635,268006
1,25,TRUE,right,right,0.786808967590332,268006
1,26,FALSE,right,right,1.009709119796753,268006
1,27,TRUE,left,right,0.7113559246063232,268006
1,28,FALSE,left,right,0.984004020690918,268006
1,29,FALSE,right,left,1.3268680572509766,268006
1,30,TRUE,left,right,0.79984283447265625,268006
1,31,TRUE,left,right,0.6906280517578125,268006
1,32,FALSE,left,right,0.9003698825836182,268006
1,33,TRUE,right,right,0.6466970443725586,268006
1,34,FALSE,left,left,0.7200338840484619,268006
1,35,TRUE,left,right,0.8910567760467529,268006
1,36,TRUE,right,right,0.5005838871002197,268006
1,37,TRUE,right,left,0.7554049491882324,268006
1,38,TRUE,left,right,0.6514208316802979,268006
1,39,FALSE,right,right,1.0819940567016602,268006
1,40,FALSE,left,right,0.8805489540100098,268006
1,41,FALSE,left,left,0.9537930488586426,268006
1,42,TRUE,right,right,0.6328079700469971,268006
1,43,TRUE,left,right,0.5096619129180908,268006
1,44,TRUE,left,right,0.64599609375,268006
1,45,TRUE,right,right,0.4942471981048584,268006
1,46,FALSE,right,right,0.9830620288848876,268006
1,47,FALSE,right,right,1.2853879928588867,268006
1,48,TRUE,left,right,0.5378129482269287,268006
1,49,TRUE,left,right,0.5561769008636475,268006
1,50,FALSE,right,left,1.2071959972381592,268006
1,51,FALSE,right,right,1.1483538150787354,268006
1,52,TRUE,right,right,0.5276749134063721,268006
1,53,TRUE,left,right,0.6668682098388672,268006
1,54,TRUE,right,right,0.6963391304016113,268006
1,55,TRUE,right,right,0.5484521389007568,268006
1,56,TRUE,right,right,0.637488842010498,268006
1,57,TRUE,left,right,0.5454850196838379,268006
1,58,TRUE,right,right,0.7185509204864502,268006
1,59,FALSE,left,left,0.6150391101837158,268006
1,60,TRUE,right,left,0.8974590301513672,268006
1,61,TRUE,left,right,0.7049980163574219,268006
1,62,FALSE,right,left,0.6433660984039307,268006
1,63,FALSE,right,left,1.0006327629089355,268006
1,64,TRUE,right,right,0.5445828437805176,268006
1,65,TRUE,right,right,0.6457610130310059,268006
1,66,TRUE,left,right,0.518265962600708,268006
1,67,FALSE,left,left,0.9429879188537598,268006
1,68,TRUE,right,right,0.6432468891143799,268006
1,69,FALSE,left,left,0.934589147567749,268006
1,70,FALSE,right,right,0.8169491291046143,268006
1,71,TRUE,right,right,0.7216031551361084,268006
1,72,TRUE,left,left,1.049753189086914,268006
1,73,TRUE,left,right,0.6838641166687012,268006
1,74,FALSE,left,left,0.9254319667816162,268006
1,75,TRUE,left,right,0.7033979892730713,268006
1,76,TRUE,right,right,0.6604828834533691,268006
1,77,FALSE,right,left,1.3985960483551023,268006
1,78,FALSE,left,right,1.0990707874298096,268006
1,79,TRUE,right,right,0.7635788917541504,268006
1,80,FALSE,left,left,0.8021571636199951,268006
1,81,TRUE,left,left,0.7146420478820801,268006
1,82,TRUE,right,right,0.6970939636230469,268006
1,83,FALSE,right,right,0.8652091026306152,268006
1,84,FALSE,right,right,0.7397518157958984,268006
1,85,FALSE,right,right,0.9689979553222656,268006
1,86,TRUE,left,left,0.7435998916625977,268006
1,87,FALSE,right,right,0.8835577964782715,268006
1,88,TRUE,right,right,0.589730978012085,268006
1,89,FALSE,right,right,1.1129810810089111,268006
1,90,FALSE,right,right,0.9004020690917969,268006
1,91,TRUE,left,right,0.6950051784515381,268006
1,92,FALSE,right,right,0.7849249839782715,268006
1,93,TRUE,right,right,0.7371330261230469,268006
1,94,FALSE,left,left,0.6286990642547607,268006
1,95,FALSE,right,left,0.9772460460662842,268006
1,96,FALSE,right,left,1.0619211196899414,268006
1,97,FALSE,right,right,0.825469970703125,268006
1,98,FALSE,left,left,0.6432399749755859,268006
1,99,FALSE,right,left,0.9415929317474364,268006
2,0,FALSE,left,left,1.5921871662139893,268006
2,1,FALSE,right,left,0.9882469177246094,268006
2,2,FALSE,left,left,0.9373199939727784,268006
2,3,TRUE,right,left,0.7476010322570801,268006
2,4,FALSE,left,left,0.6640989780426025,268006
2,5,TRUE,left,left,0.6964240074157715,268006
2,6,TRUE,left,left,0.7503459453582764,268006
2,7,FALSE,left,right,0.8329458236694336,268006
2,8,FALSE,right,left,1.0035090446472168,268006
2,9,FALSE,right,left,0.888897180557251,268006
2,10,FALSE,left,right,0.997622013092041,268006
2,11,TRUE,right,right,0.6195340156555176,268006
2,12,TRUE,left,left,0.779167890548706,268006
2,13,FALSE,left,left,0.6725430488586426,268006
2,14,FALSE,left,right,0.8956408500671387,268006
2,15,TRUE,right,right,0.7195389270782471,268006
2,16,FALSE,left,left,0.8985710144042969,268006
2,17,TRUE,left,right,0.6779952049255371,268006
2,18,FALSE,right,left,0.9069430828094482,268006
2,19,FALSE,right,left,1.0013630390167236,268006
2,20,TRUE,left,left,0.6415610313415527,268006
2,21,TRUE,left,right,0.5981500148773193,268006
2,22,FALSE,left,left,1.4326870441436768,268006
2,23,FALSE,left,right,0.8540430068969727,268006
2,24,FALSE,right,right,0.899169921875,268006
2,25,FALSE,left,right,0.9791109561920166,268006
2,26,TRUE,left,right,0.735590934753418,268006
2,27,FALSE,right,right,0.6534409523010254,268006
2,28,TRUE,left,left,0.8982439041137695,268006
2,29,FALSE,right,right,0.64402008056640625,268006
2,30,FALSE,right,right,0.8573338985443115,268006
2,31,TRUE,left,left,0.6625819206237793,268006
2,32,FALSE,right,right,0.980888843536377,268006
2,33,TRUE,right,left,0.6775438785552979,268006
2,34,TRUE,left,right,0.6239140033721924,268006
2,35,FALSE,left,left,0.6820881366729736,268006
2,36,TRUE,right,right,0.6335389614105225,268006
2,37,FALSE,right,left,0.7959609031677246,268006
2,38,FALSE,right,left,0.9270379543304444,268006
2,39,FALSE,right,right,0.8053860664367676,268006
2,40,TRUE,right,right,0.5171539783477783,268006
2,41,TRUE,left,right,0.74338698387146,268006
2,42,TRUE,right,left,0.8805291652679443,268006
2,43,TRUE,right,left,0.7004480361938477,268006
2,44,TRUE,left,left,0.5474939346313477,268006
2,45,TRUE,right,left,0.530951976776123,268006
2,46,FALSE,right,right,1.1740028858184814,268006
2,47,FALSE,right,right,0.8973639011383057,268006
2,48,TRUE,right,left,0.5269792079925537,268006
2,49,FALSE,right,left,0.8326890468597412,268006
2,50,FALSE,left,left,0.6655540466308594,268006
2,51,FALSE,right,left,0.8374471664428711,268006
2,52,TRUE,right,right,0.6565639972686768,268006
2,53,TRUE,right,right,0.5585448741912842,268006
2,54,FALSE,left,left,0.6756720542907715,268006
2,55,TRUE,right,right,0.4653499126434326,268006
2,56,FALSE,left,left,0.5810420513153076,268006
2,57,FALSE,left,left,0.7199580669403076,268006
2,58,FALSE,right,right,0.7738721370697021,268006
2,59,FALSE,right,right,0.8781018257141113,268006
2,60,FALSE,right,left,1.3092238903045654,268006
2,61,TRUE,left,right,0.6502740383148193,268006
2,62,TRUE,left,left,0.6235489845275879,268006
2,63,FALSE,left,left,0.782724142074585,268006
2,64,FALSE,right,right,0.8031768798828125,268006
2,65,FALSE,left,left,0.6760129928588867,268006
2,66,FALSE,left,left,0.7636888027191162,268006
2,67,FALSE,right,right,0.757411003112793,268006
2,68,FALSE,right,left,0.8635189533233643,268006
2,69,TRUE,left,right,0.6916601657867432,268006
2,70,FALSE,right,left,0.9361181259155272,268006
2,71,FALSE,left,left,0.8930912017822266,268006
2,72,TRUE,left,left,0.6418290138244629,268006
2,73,TRUE,right,right,0.6161510944366455,268006
2,74,TRUE,right,right,0.7650701999664307,268006
2,75,FALSE,left,left,0.7359440326690674,268006
2,76,TRUE,left,left,0.6658980846405029,268006
2,77,FALSE,right,right,0.9197630882263184,268006
2,78,TRUE,left,left,0.6831088066101074,268006
2,79,TRUE,left,left,0.712285041809082,268006
2,80,FALSE,right,right,0.5892269611358643,268006
2,81,FALSE,left,right,0.70182204246521,268006
2,82,TRUE,right,right,0.7035090923309326,268006
2,83,FALSE,right,left,0.7731850147247314,268006
2,84,TRUE,left,left,0.7323110103607178,268006
2,85,TRUE,left,right,1.1577892303466797,268006
2,86,FALSE,right,right,0.611624002456665,268006
2,87,TRUE,left,left,0.9640018939971924,268006
2,88,FALSE,left,left,0.863461971282959,268006
2,89,TRUE,right,right,0.7357168197631836,268006
2,90,TRUE,right,right,0.611515998840332,268006
2,91,FALSE,left,left,0.7144038677215576,268006
2,92,FALSE,left,left,0.7901530265808105,268006
2,93,TRUE,right,right,0.6895308494567871,268006
2,94,TRUE,right,right,0.8968348503112793,268006
2,95,TRUE,left,right,0.7983701229095459,268006
2,96,FALSE,left,right,1.045309066772461,268006
2,97,TRUE,left,left,0.7588019371032715,268006
2,98,FALSE,right,right,0.67945098876953125,268006
2,99,TRUE,right,right,0.6981379985809326,268006
3,0,TRUE,left,left,0.8710341453552246,268006
3,1,FALSE,left,left,0.5770361423492432,268006
3,2,TRUE,right,right,0.5756099224090576,268006
3,3,FALSE,left,left,0.7128028869628906,268006
3,4,FALSE,left,left,0.72249603271484375,268006
3,5,TRUE,left,right,0.7765679359436035,268006
3,6,FALSE,left,left,1.1172900199890137,268006
3,7,FALSE,left,right,1.194808006286621,268006
3,8,FALSE,right,right,0.853247880935669,268006
3,9,TRUE,left,left,0.5552589893341064,268006
3,10,TRUE,right,right,0.7154238224029541,268006
3,11,TRUE,right,right,0.6172890663146973,268006
3,12,FALSE,right,right,1.1203069686889648,268006
3,13,TRUE,right,right,0.7543671131134033,268006
3,14,TRUE,right,right,0.6889700889587402,268006
3,15,FALSE,left,left,0.66982102394104,268006
3,16,FALSE,right,right,0.8145411014556885,268006
3,17,FALSE,left,left,1.0004491806030271,268006
3,18,FALSE,left,right,0.9799599647521972,268006
3,19,TRUE,left,left,0.7867641448974609,268006
3,20,TRUE,right,right,1.298125982284546,268006
3,21,FALSE,left,left,0.657012939453125,268006
3,22,FALSE,right,right,0.6636509895324707,268006
3,23,TRUE,right,right,0.5992560386657715,268006
3,24,FALSE,left,right,0.8109760284423828,268006
3,25,TRUE,right,right,0.6944830417633057,268006
3,26,TRUE,right,right,0.5314881801605225,268006
3,27,FALSE,right,right,1.6467719078063965,268006
3,28,FALSE,left,right,0.9880101680755616,268006
3,29,FALSE,right,right,1.09987211227417,268006
3,30,FALSE,right,left,1.423656940460205,268006
3,31,TRUE,right,right,0.7171580791473389,268006
3,32,TRUE,right,right,0.7366530895233154,268006
3,33,TRUE,left,left,0.9800829887390136,268006
3,34,TRUE,left,right,0.8798511028289795,268006
3,35,FALSE,right,right,1.1438930034637451,268006
3,36,TRUE,right,right,0.5659091472625732,268006
3,37,TRUE,right,right,0.5997369289398193,268006
3,38,FALSE,left,left,0.7563331127166748,268006
3,39,FALSE,right,left,1.0239300727844238,268006
3,40,TRUE,left,right,0.7451431751251221,268006
3,41,FALSE,left,left,1.100627899169922,268006
3,42,TRUE,left,left,0.8692870140075684,268006
3,43,FALSE,left,left,0.8958380222320557,268006
3,44,FALSE,right,right,0.6119389533996582,268006
3,45,FALSE,left,left,0.7267880439758301,268006
3,46,TRUE,right,right,0.46401500701904297,268006
3,47,TRUE,left,right,0.5346438884735107,268006
3,48,FALSE,right,right,0.630504846572876,268006
3,49,TRUE,left,left,0.5902581214904785,268006
3,50,TRUE,left,left,0.9086601734161376,268006
3,51,FALSE,left,right,0.9831500053405762,268006
3,52,TRUE,left,left,0.8379878997802734,268006
3,53,TRUE,right,right,0.6686298847198486,268006
3,54,FALSE,right,left,0.9163579940795898,268006
3,55,FALSE,right,right,0.9256231784820556,268006
3,56,FALSE,left,left,0.9514729976654052,268006
3,57,FALSE,right,right,1.2025411128997805,268006
3,58,FALSE,left,left,1.115117073059082,268006
3,59,TRUE,right,right,0.7389430999755859,268006
3,60,FALSE,right,right,1.1999359130859375,268006
3,61,FALSE,left,left,0.7751400470733643,268006
3,62,FALSE,left,left,0.8573329448699951,268006
3,63,TRUE,right,right,0.7095811367034912,268006
3,64,TRUE,left,right,0.987157106399536,268006
3,65,FALSE,left,right,0.9560830593109132,268006
3,66,FALSE,left,right,1.064277172088623,268006
3,67,FALSE,right,left,1.0901260375976562,268006
3,68,TRUE,right,right,0.7219460010528564,268006
3,69,TRUE,right,right,0.6628580093383789,268006
3,70,TRUE,right,right,0.8162710666656494,268006
3,71,TRUE,right,right,0.7358810901641846,268006
3,72,FALSE,left,left,0.7766649723052979,268006
3,73,FALSE,left,right,1.0354268550872805,268006
3,74,FALSE,right,left,0.9855921268463136,268006
3,75,TRUE,left,left,0.6040701866149902,268006
3,76,FALSE,right,right,0.8147749900817871,268006
3,77,FALSE,right,right,1.0150561332702637,268006
3,78,TRUE,right,right,0.7891738414764404,268006
3,79,FALSE,left,left,0.7747581005096436,268006
3,80,TRUE,left,left,0.6941790580749512,268006
3,81,FALSE,left,left,1.0590298175811768,268006
3,82,TRUE,left,left,0.6427428722381592,268006
3,83,TRUE,left,left,0.9436521530151368,268006
3,84,FALSE,left,left,0.7664198875427246,268006
3,85,FALSE,left,left,0.9874420166015624,268006
3,86,TRUE,right,right,0.8227388858795166,268006
3,87,FALSE,right,right,1.013813018798828,268006
3,88,TRUE,right,right,0.7506029605865479,268006
3,89,FALSE,right,right,0.81768798828125,268006
3,90,TRUE,left,left,0.8312561511993408,268006
3,91,FALSE,right,right,1.0756869316101074,268006
3,92,TRUE,left,left,0.567561149597168,268006
3,93,TRUE,left,left,0.8152620792388916,268006
3,94,TRUE,right,right,0.7504558563232422,268006
3,95,FALSE,right,right,1.0942819118499756,268006
3,96,TRUE,left,left,0.6037280559539795,268006
3,97,TRUE,right,right,0.7341170310974121,268006
3,98,FALSE,right,right,0.9664552211761476,268006
3,99,FALSE,left,left,0.8993511199951172,268006
4,0,TRUE,right,right,0.6652610301971436,268006
4,1,TRUE,left,right,0.7045331001281738,268006
4,2,FALSE,left,left,0.6246819496154785,268006
4,3,FALSE,left,left,0.6824378967285156,268006
4,4,TRUE,left,right,0.75030517578125,268006
4,5,FALSE,left,left,0.6777920722961426,268006
4,6,TRUE,right,right,0.6921219825744629,268006
4,7,TRUE,right,right,0.7377128601074219,268006
4,8,FALSE,right,right,0.995574951171875,268006
4,9,FALSE,right,right,0.7991468906402588,268006
4,10,TRUE,left,left,1.6455512046813965,268006
4,11,TRUE,left,left,0.7040340900421143,268006
4,12,FALSE,left,left,0.9793198108673096,268006
4,13,TRUE,left,left,0.6250948905944824,268006
4,14,TRUE,right,right,0.672914981842041,268006
4,15,TRUE,left,right,0.5898098945617676,268006
4,16,FALSE,right,right,0.7290079593658447,268006
4,17,FALSE,left,left,1.0384080410003662,268006
4,18,FALSE,right,right,0.9127810001373292,268006
4,19,FALSE,right,right,0.8779079914093018,268006
4,20,FALSE,left,left,0.6517179012298584,268006
4,21,TRUE,right,right,0.5907320976257324,268006
4,22,FALSE,left,left,0.5836210250854492,268006
4,23,TRUE,right,right,0.7778599262237549,268006
4,24,FALSE,left,left,0.6446719169616699,268006
4,25,FALSE,right,right,0.6583609580993652,268006
4,26,TRUE,left,left,0.8189558982849121,268006
4,27,TRUE,right,left,0.826664924621582,268006
4,28,FALSE,left,left,0.602888822555542,268006
4,29,FALSE,right,right,0.8011319637298584,268006
4,30,FALSE,right,right,0.8566079139709473,268006
4,31,FALSE,left,left,0.900097131729126,268006
4,32,FALSE,right,right,0.8802380561828613,268006
4,33,TRUE,left,right,0.6958279609680176,268006
4,34,FALSE,left,left,1.1044700145721436,268006
4,35,TRUE,left,left,0.6555590629577637,268006
4,36,TRUE,right,right,0.8476629257202148,268006
4,37,FALSE,right,right,1.0998430252075195,268006
4,38,FALSE,left,left,0.9581801891326904,268006
4,39,FALSE,right,right,0.9878220558166504,268006
4,40,FALSE,right,right,1.134310007095337,268006
4,41,FALSE,left,left,1.40159010887146,268006
4,42,TRUE,left,left,0.8805170059204102,268006
4,43,FALSE,right,left,1.2048768997192385,268006
4,44,FALSE,right,right,0.8531348705291748,268006
4,45,FALSE,right,right,0.9875209331512452,268006
4,46,TRUE,left,left,0.744513988494873,268006
4,47,TRUE,left,left,0.8698840141296387,268006
4,48,TRUE,right,right,0.9442300796508788,268006
4,49,FALSE,left,right,0.9504711627960204,268006
4,50,TRUE,right,right,0.6735310554504395,268006
4,51,TRUE,right,right,0.7540340423583984,268006
4,52,FALSE,left,left,0.655677080154419,268006
4,53,TRUE,right,right,0.854395866394043,268006
4,54,TRUE,left,left,0.6909828186035156,268006
4,55,FALSE,right,left,1.3225460052490234,268006
4,56,FALSE,left,left,1.044421911239624,268006
4,57,TRUE,right,right,1.237962007522583,268006
4,58,TRUE,right,right,1.1573889255523682,268006
4,59,TRUE,left,left,0.8770921230316162,268006
4,60,TRUE,right,left,1.0366339683532717,268006
4,61,FALSE,right,right,0.7741811275482178,268006
4,62,TRUE,right,left,0.6194820404052734,268006
4,63,FALSE,right,right,0.9383680820465088,268006
4,64,FALSE,right,right,0.9926340579986572,268006
4,65,FALSE,right,right,1.0127251148223877,268006
4,66,FALSE,right,left,1.1477279663085938,268006
4,67,TRUE,left,left,0.7604038715362549,268006
4,68,TRUE,right,right,1.1182801723480225,268006
4,69,TRUE,right,left,0.9205470085144044,268006
4,70,FALSE,left,left,0.7651870250701904,268006
4,71,TRUE,left,left,0.611987829208374,268006
4,72,FALSE,left,left,1.1398921012878418,268006
4,73,FALSE,left,left,1.05281400680542,268006
4,74,TRUE,left,left,0.613487958908081,268006
4,75,FALSE,left,right,0.8254859447479248,268006
4,76,FALSE,left,left,1.1489441394805908,268006
4,77,TRUE,right,right,0.5522129535675049,268006
4,78,TRUE,left,left,0.6057629585266113,268006
4,79,TRUE,right,right,0.6516809463500977,268006
4,80,TRUE,left,left,0.5218698978424072,268006
4,81,FALSE,left,right,0.7967898845672607,268006
4,82,FALSE,left,right,0.7017099857330322,268006
4,83,TRUE,right,right,0.5894520282745361,268006
4,84,TRUE,left,right,0.9329981803894044,268006
4,85,FALSE,left,left,0.8753440380096436,268006
4,86,FALSE,left,left,0.8802788257598877,268006
4,87,TRUE,right,right,0.5891261100769043,268006
4,88,FALSE,left,left,0.920090913772583,268006
4,89,TRUE,right,left,0.7775421142578125,268006
4,90,FALSE,left,left,1.2112669944763184,268006
4,91,FALSE,left,left,1.7084808349609375,268006
4,92,TRUE,right,right,0.5656552314758301,268006
4,93,TRUE,right,right,0.600654125213623,268006
4,94,FALSE,left,right,1.065804958343506,268006
4,95,FALSE,left,right,1.044529914855957,268006
4,96,FALSE,right,right,1.2572691440582275,268006
4,97,TRUE,right,left,0.6367759704589844,268006
4,98,TRUE,right,right,0.7555348873138428,268006
4,99,TRUE,right,right,0.7961699962615967,268006
5,0,TRUE,right,right,5.97810697555542,268006
5,1,FALSE,left,left,1.605787992477417,268006
5,2,TRUE,right,right,0.5945701599121094,268006
5,3,FALSE,left,left,0.6729321479797363,268006
5,4,FALSE,left,left,0.8055028915405273,268006
5,5,FALSE,right,left,1.0887298583984375,268006
5,6,FALSE,right,right,1.2711398601531982,268006
5,7,FALSE,left,left,0.906369924545288,268006
5,8,FALSE,left,right,0.9823358058929444,268006
5,9,FALSE,left,left,0.92438006401062,268006
5,10,FALSE,left,right,0.9692230224609376,268006
5,11,FALSE,left,left,0.939457893371582,268006
5,12,FALSE,right,right,1.0361101627349854,268006
5,13,TRUE,right,right,0.6297540664672852,268006
5,14,TRUE,right,right,0.4881069660186768,268006
5,15,FALSE,left,left,0.842069149017334,268006
5,16,TRUE,right,right,0.4494860172271729,268006
5,17,FALSE,left,left,0.8620378971099854,268006
5,18,FALSE,right,right,1.1217570304870603,268006
5,19,FALSE,right,right,1.0226609706878662,268006
5,20,TRUE,right,right,0.8433840274810791,268006
5,21,TRUE,right,right,0.43342089653015137,268006
5,22,TRUE,right,right,0.5223500728607178,268006
5,23,TRUE,right,right,0.4426698684692383,268006
5,24,FALSE,right,right,1.419633150100708,268006
5,25,TRUE,left,left,0.8725321292877197,268006
5,26,TRUE,right,left,0.5313210487365723,268006
5,27,TRUE,right,left,0.22921490669250488,268006
5,28,TRUE,left,left,0.944326877593994,268006
5,29,TRUE,left,left,0.7592217922210693,268006
5,30,TRUE,left,left,0.5029630661010742,268006
5,31,FALSE,right,left,1.7522809505462646,268006
5,32,TRUE,right,right,0.4378359317779541,268006
5,33,TRUE,right,right,0.499891996383667,268006
5,34,FALSE,left,left,0.7557790279388428,268006
5,35,TRUE,right,right,0.5361330509185791,268006
5,36,TRUE,right,right,0.4923999309539795,268006
5,37,FALSE,right,right,1.158779859542847,268006
5,38,FALSE,right,right,1.0447099208831787,268006
5,39,TRUE,left,left,0.48149895668029785,268006
5,40,FALSE,left,left,0.8672688007354736,268006
5,41,TRUE,right,right,0.42803215980529785,268006
5,42,TRUE,left,left,0.5692248344421387,268006
5,43,FALSE,left,right,0.8154470920562744,268006
5,44,FALSE,left,right,0.7448039054870605,268006
5,45,TRUE,left,left,0.5618679523468018,268006
5,46,TRUE,right,right,0.5938420295715332,268006
5,47,FALSE,left,left,0.6673140525817871,268006
5,48,FALSE,left,left,0.6599159240722656,268006
5,49,FALSE,right,right,0.7409861087799072,268006
5,50,TRUE,right,right,0.8045530319213867,268006
5,51,TRUE,right,right,0.6983439922332764,268006
5,52,FALSE,right,right,0.999643087387085,268006
5,53,TRUE,left,left,0.6175169944763184,268006
5,54,FALSE,left,left,0.7879979610443115,268006
5,55,TRUE,left,left,0.6025779247283936,268006
5,56,FALSE,left,left,0.7903289794921875,268006
5,57,FALSE,left,right,1.1424429416656494,268006
5,58,FALSE,left,right,1.028754949569702,268006
5,59,FALSE,right,right,1.009355068206787,268006
5,60,FALSE,left,left,0.6363999843597412,268006
5,61,TRUE,left,right,0.5732400417327881,268006
5,62,TRUE,right,left,0.5997209548950195,268006
5,63,FALSE,left,left,0.7207369804382324,268006
5,64,TRUE,right,right,0.8967599868774414,268006
5,65,TRUE,right,right,0.9637019634246826,268006
5,66,TRUE,left,left,0.6845118999481201,268006
5,67,TRUE,right,left,0.9039030075073242,268006
5,68,FALSE,left,left,0.6594860553741455,268006
5,69,TRUE,right,right,0.7667591571807861,268006
5,70,TRUE,left,left,0.5929720401763916,268006
5,71,TRUE,left,left,0.5721890926361084,268006
5,72,TRUE,left,left,0.4540441036224365,268006
5,73,TRUE,right,right,0.6364960670471191,268006
5,74,FALSE,right,right,0.9360477924346924,268006
5,75,FALSE,left,left,1.117459058761597,268006
5,76,FALSE,right,right,0.6763110160827637,268006
5,77,FALSE,left,left,0.690593957901001,268006
5,78,TRUE,right,right,0.6749558448791504,268006
5,79,FALSE,left,left,1.906554937362671,268006
5,80,TRUE,right,left,0.6103270053863525,268006
5,81,TRUE,right,left,0.8280429840087891,268006
5,82,TRUE,right,right,0.8865070343017578,268006
5,83,FALSE,right,left,1.0128271579742432,268006
5,84,TRUE,right,right,0.6860411167144775,268006
5,85,FALSE,left,left,0.6717958450317383,268006
5,86,FALSE,right,right,1.5465660095214844,268006
5,87,FALSE,left,left,0.8238041400909424,268006
5,88,FALSE,right,right,0.8421142101287842,268006
5,89,FALSE,left,left,0.6681678295135498,268006
5,90,TRUE,right,left,0.6979148387908936,268006
5,91,TRUE,left,left,0.42555689811706543,268006
5,92,FALSE,left,right,0.918442964553833,268006
5,93,TRUE,left,left,0.3036680221557617,268006
5,94,TRUE,right,right,0.7794480323791504,268006
5,95,TRUE,right,right,0.73909592628479,268006
5,96,TRUE,left,left,0.6297039985656738,268006
5,97,TRUE,left,left,0.5945329666137695,268006
5,98,FALSE,left,right,0.8186230659484863,268006
5,99,TRUE,left,right,0.7718510627746582,268006
6,0,FALSE,left,left,1.5905001163482666,268006
6,1,TRUE,right,right,0.5810220241546631,268006
6,2,FALSE,left,left,0.5536949634552002,268006
6,3,FALSE,right,right,0.7049510478973389,268006
6,4,FALSE,left,left,0.5991549491882324,268006
6,5,FALSE,right,right,0.6704440116882324,268006
6,6,FALSE,left,left,0.7410578727722168,268006
6,7,FALSE,left,left,1.1422910690307615,268006
6,8,FALSE,right,right,0.9922049045562744,268006
6,9,TRUE,right,right,0.8088860511779785,268006
6,10,TRUE,right,right,0.6597011089324951,268006
6,11,TRUE,right,right,0.842918872833252,268006
6,12,TRUE,left,left,0.6755318641662598,268006
6,13,TRUE,left,left,0.5357060432434082,268006
6,14,TRUE,right,left,0.773015022277832,268006
6,15,FALSE,left,left,0.5629270076751709,268006
6,16,TRUE,right,right,0.5406451225280762,268006
6,17,TRUE,left,left,0.5087308883666992,268006
6,18,TRUE,left,left,0.5201389789581299,268006
6,19,TRUE,left,left,0.6296651363372803,268006
6,20,FALSE,right,right,0.6535460948944092,268006
6,21,TRUE,right,right,0.623805046081543,268006
6,22,TRUE,right,right,0.8030238151550293,268006
6,23,TRUE,left,left,0.8101129531860352,268006
6,24,TRUE,left,left,0.7009401321411133,268006
6,25,TRUE,left,left,0.5472738742828369,268006
6,26,TRUE,left,left,0.5535070896148682,268006
6,27,FALSE,left,left,0.8827102184295654,268006
6,28,FALSE,right,right,0.903512954711914,268006
6,29,TRUE,right,right,0.6109030246734619,268006
6,30,FALSE,left,right,0.8792159557342529,268006
6,31,TRUE,left,left,0.5032479763031006,268006
6,32,TRUE,right,left,1.0723700523376465,268006
6,33,FALSE,left,left,0.8983619213104248,268006
6,34,FALSE,left,left,0.7962689399719238,268006
6,35,TRUE,right,right,0.65513014793396,268006
6,36,TRUE,right,left,1.050048828125,268006
6,37,TRUE,left,left,0.6235978603363037,268006
6,38,FALSE,right,right,0.7159230709075928,268006
6,39,FALSE,right,right,0.6703870296478271,268006
6,40,FALSE,right,left,1.3937649726867676,268006
6,41,TRUE,right,left,0.552001953125,268006
6,42,FALSE,left,left,0.8436441421508789,268006
6,43,FALSE,left,right,1.1234118938446045,268006
6,44,FALSE,right,right,0.9974849224090576,268006
6,45,FALSE,left,left,0.7708950042724609,268006
6,46,FALSE,right,right,1.1052091121673584,268006
6,47,FALSE,left,left,0.7879838943481445,268006
6,48,FALSE,right,right,1.0357279777526855,268006
6,49,TRUE,right,right,0.7127230167388916,268006
6,50,TRUE,left,right,0.46742987632751465,268006
6,51,FALSE,right,right,0.7773149013519287,268006
6,52,FALSE,left,left,0.7540819644927979,268006
6,53,FALSE,left,left,0.862921953201294,268006
6,54,FALSE,right,right,0.8167479038238525,268006
6,55,TRUE,right,right,0.5963959693908691,268006
6,56,FALSE,right,right,0.77956390380859375,268006
6,57,TRUE,right,right,0.5445511341094971,268006
6,58,TRUE,right,right,0.46297216415405273,268006
6,59,FALSE,left,left,0.7230510711669922,268006
6,60,TRUE,left,left,0.5626909732818604,268006
6,61,TRUE,left,left,0.4455869197845459,268006
6,62,FALSE,right,right,0.7604961395263672,268006
6,63,TRUE,right,left,0.6020557880401611,268006
6,64,FALSE,right,left,0.9212989807128906,268006
6,65,TRUE,right,left,0.5840141773223877,268006
6,66,TRUE,right,left,0.7582790851593018,268006
6,67,FALSE,right,right,0.9001460075378418,268006
6,68,TRUE,left,left,0.72473907470703125,268006
6,69,FALSE,left,left,0.8637299537658691,268006
6,70,FALSE,right,right,0.986483097076416,268006
6,71,TRUE,left,left,0.6214308738708496,268006
6,72,TRUE,left,left,0.7175829410552979,268006
6,73,FALSE,right,right,0.4619250297546386,268006
6,74,TRUE,left,left,0.6825418472290039,268006
6,75,FALSE,left,left,0.8057138919830322,268006
6,76,TRUE,right,right,0.5633950233459473,268006
6,77,TRUE,right,right,0.7196362018585205,268006
6,78,TRUE,left,left,0.5518560409545898,268006
6,79,FALSE,left,left,0.8585860729217529,268006
6,80,FALSE,right,right,0.7168757915496826,268006
6,81,FALSE,right,right,1.035459041595459,268006
6,82,FALSE,left,left,0.6270260810852051,268006
6,83,FALSE,right,left,0.9350671768188475,268006
6,84,TRUE,right,right,0.6505029201507568,268006
6,85,FALSE,left,left,0.9977221488952636,268006
6,86,FALSE,left,right,1.0991029739379885,268006
6,87,TRUE,left,left,0.5220820903778076,268006
6,88,FALSE,left,left,0.8218691349029541,268006
6,89,FALSE,right,right,0.7991981506347656,268006
6,90,FALSE,right,right,1.1443841457366943,268006
6,91,FALSE,left,left,0.9068820476531982,268006
6,92,TRUE,right,right,0.6813530921936035,268006
6,93,TRUE,left,left,0.8200840950012207,268006
6,94,FALSE,left,right,0.874467134475708,268006
6,95,TRUE,right,right,0.6822969913482666,268006
6,96,FALSE,left,left,0.8542609214782715,268006
6,97,FALSE,left,left,0.965712070465088,268006
6,98,TRUE,left,left,0.747905969619751,268006
6,99,FALSE,right,right,0.8595287799835205,268006
7,0,TRUE,left,left,1.2436699867248535,268006
7,1,FALSE,right,right,0.8942790031433105,268006
7,2,TRUE,right,right,0.5280008316040039,268006
7,3,TRUE,right,right,0.574775218963623,268006
7,4,TRUE,left,left,0.5596590042114258,268006
7,5,FALSE,right,right,1.0119240283966064,268006
7,6,FALSE,right,left,1.715914964675903,268006
7,7,FALSE,left,left,0.7377798557281494,268006
7,8,FALSE,right,right,0.7013540267944336,268006
7,9,TRUE,right,right,0.6551821231842041,268006
7,10,TRUE,right,right,0.7095179557800293,268006
7,11,FALSE,left,left,0.6241309642791748,268006
7,12,FALSE,left,left,0.7269539833068848,268006
7,13,FALSE,left,right,0.9028360843658448,268006
7,14,FALSE,left,left,0.853830099105835,268006
7,15,TRUE,left,left,0.5032069683074951,268006
7,16,FALSE,left,left,0.8244369029998779,268006
7,17,TRUE,right,right,0.5132660865783691,268006
7,18,TRUE,right,right,0.7284340858459473,268006
7,19,TRUE,left,left,0.8068709373474121,268006
7,20,TRUE,left,left,0.5859391689300537,268006
7,21,TRUE,left,left,0.6306960582733154,268006
7,22,FALSE,left,right,0.7174208164215088,268006
7,23,TRUE,left,left,0.4641520977020264,268006
7,24,TRUE,left,left,0.567194938659668,268006
7,25,TRUE,right,left,0.41153907775878906,268006
7,26,TRUE,left,left,0.4614100456237793,268006
7,27,TRUE,left,left,0.4343271255493164,268006
7,28,FALSE,right,right,0.783958911895752,268006
7,29,FALSE,left,left,0.6299290657043457,268006
7,30,FALSE,right,right,0.7292258739471436,268006
7,31,TRUE,left,left,0.4797990322113037,268006
7,32,TRUE,right,right,0.6186609268188477,268006
7,33,FALSE,left,left,0.9106988906860352,268006
7,34,FALSE,left,right,1.1620700359344482,268006
7,35,TRUE,right,right,0.4511029720306397,268006
7,36,FALSE,right,left,0.75156402587890625,268006
7,37,FALSE,left,left,0.8322348594665527,268006
7,38,TRUE,left,left,0.5653989315032959,268006
7,39,TRUE,right,left,0.7196450233459473,268006
7,40,FALSE,right,right,0.8499159812927246,268006
7,41,FALSE,left,left,0.8846399784088135,268006
7,42,FALSE,left,right,1.0414819717407229,268006
7,43,TRUE,right,right,0.6736440658569336,268006
7,44,TRUE,left,left,0.6569838523864746,268006
7,45,TRUE,right,left,0.7709090709686279,268006
7,46,TRUE,right,right,0.5741639137268066,268006
7,47,TRUE,left,left,0.4796597957611084,268006
7,48,TRUE,right,right,0.6089420318603516,268006
7,49,FALSE,left,left,0.588252067565918,268006
7,50,FALSE,left,left,0.8597090244293213,268006
7,51,TRUE,right,left,0.8964340686798096,268006
7,52,TRUE,right,left,0.7845349311828613,268006
7,53,FALSE,right,left,0.9888460636138916,268006
7,54,TRUE,right,left,0.7143838405609131,268006
7,55,TRUE,left,left,0.6287169456481934,268006
7,56,TRUE,left,left,0.6442279815673828,268006
7,57,FALSE,left,right,1.0312070846557615,268006
7,58,TRUE,right,left,0.739840030670166,268006
7,59,TRUE,left,left,0.7732980251312256,268006
7,60,FALSE,left,left,0.9346740245819092,268006
7,61,FALSE,left,right,0.8761320114135742,268006
7,62,TRUE,right,right,0.6297729015350342,268006
7,63,TRUE,left,left,0.5676679611206055,268006
7,64,FALSE,left,left,0.8687160015106201,268006
7,65,FALSE,right,right,0.7310030460357666,268006
7,66,FALSE,right,right,0.8312151432037354,268006
7,67,FALSE,right,right,1.3470909595489502,268006
7,68,TRUE,right,left,0.9871389865875244,268006
7,69,FALSE,left,left,0.7623310089111328,268006
7,70,FALSE,left,right,0.8113620281219482,268006
7,71,TRUE,left,left,0.6805179119110107,268006
7,72,FALSE,right,right,0.7699258327484131,268006
7,73,FALSE,left,left,0.8176860809326172,268006
7,74,TRUE,right,right,0.5761339664459229,268006
7,75,FALSE,right,right,1.140511989593506,268006
7,76,TRUE,right,right,0.5745370388031006,268006
7,77,FALSE,right,right,0.8452548980712891,268006
7,78,TRUE,right,right,0.52822113037109375,268006
7,79,TRUE,left,left,0.7676858901977539,268006
7,80,FALSE,right,right,0.8115367889404297,268006
7,81,FALSE,right,right,0.868344783782959,268006
7,82,TRUE,right,right,0.6024110317230225,268006
7,83,TRUE,left,left,0.588515043258667,268006
7,84,FALSE,right,right,0.8975269794464111,268006
7,85,FALSE,left,left,0.6562449932098389,268006
7,86,FALSE,left,left,0.8885498046875,268006
7,87,TRUE,right,right,0.5998268127441406,268006
7,88,FALSE,right,right,0.8882260322570801,268006
7,89,TRUE,right,right,0.4876978397369385,268006
7,90,FALSE,right,right,0.7001359462738037,268006
7,91,TRUE,right,right,0.558121919631958,268006
7,92,TRUE,right,right,0.5597500801086426,268006
7,93,TRUE,left,left,0.5839149951934814,268006
7,94,FALSE,right,right,0.6200740337371826,268006
7,95,TRUE,left,left,0.5931880474090576,268006
7,96,FALSE,left,left,1.0868659019470217,268006
7,97,TRUE,left,left,0.646981954574585,268006
7,98,FALSE,right,right,0.5861079692840576,268006
7,99,FALSE,left,left,0.70557403564453125,268006
