block,trial,s1_state,direction,response,rt,pair,
0,0,False,right,right,1.4903030395507812,189189,
0,1,False,left,right,1.678100824356079,189189,
0,2,False,left,right,0.6271319389343262,189189,
0,3,True,left,left,1.1006050109863281,189189,
0,4,False,left,left,1.3671400547027588,189189,
0,5,False,right,right,1.070842981338501,189189,
0,6,False,right,right,1.239354133605957,189189,
0,7,True,left,left,1.125791072845459,189189,
0,8,False,right,right,2.1003739833831787,189189,
0,9,True,left,left,1.5704669952392578,189189,
0,10,False,right,right,0.647799015045166,189189,
0,11,True,left,left,1.1057450771331787,189189,
0,12,False,left,right,1.795644998550415,189189,
0,13,True,right,right,1.1073789596557617,189189,
0,14,False,left,right,0.8581140041351318,189189,
0,15,True,right,right,1.2854008674621582,189189,
0,16,True,right,right,0.9887700080871582,189189,
0,17,False,left,right,1.3777921199798584,189189,
0,18,False,right,right,1.7610068321228027,189189,
0,19,False,right,right,0.9481110572814941,189189,
0,20,False,left,right,1.156662940979004,189189,
0,21,False,right,right,1.4400811195373535,189189,
0,22,False,left,left,1.3266208171844482,189189,
0,23,False,right,right,0.9110510349273682,189189,
0,24,True,right,right,1.2994568347930908,189189,
0,25,False,left,right,0.4184558391571045,189189,
0,26,False,right,right,0.8864309787750244,189189,
0,27,True,left,right,1.3237860202789307,189189,
0,28,False,right,right,0.8390688896179199,189189,
0,29,True,right,right,1.7109429836273193,189189,
0,30,False,right,right,0.6532340049743652,189189,
0,31,True,left,left,0.9655249118804932,189189,
0,32,False,left,right,0.4357590675354004,189189,
0,33,False,left,left,0.568260908126831,189189,
0,34,False,right,right,0.5991151332855225,189189,
0,35,False,right,right,0.8152120113372803,189189,
0,36,True,left,left,0.9722878932952881,189189,
0,37,True,left,left,0.6747369766235352,189189,
0,38,False,left,right,1.2249188423156738,189189,
0,39,True,right,right,0.8772151470184326,189189,
0,40,False,left,left,1.1215651035308838,189189,
0,41,False,left,right,1.1923599243164062,189189,
0,42,False,left,left,0.8892958164215088,189189,
0,43,True,left,left,1.1809020042419434,189189,
0,44,False,left,right,1.2000679969787598,189189,
0,45,False,left,left,1.1959400177001953,189189,
0,46,False,left,left,1.1229209899902344,189189,
0,47,False,left,left,0.8644180297851562,189189,
0,48,False,right,left,0.7671029567718506,189189,
0,49,False,right,left,0.8605849742889404,189189,
0,50,False,left,left,0.7311909198760986,189189,
0,51,True,left,left,1.6063051223754883,189189,
0,52,True,left,left,0.9369878768920898,189189,
0,53,False,left,left,0.7166898250579834,189189,
0,54,False,left,left,0.643164873123169,189189,
0,55,False,left,left,0.5350360870361328,189189,
0,56,False,right,left,0.5327939987182617,189189,
0,57,False,right,left,0.5233268737792969,189189,
0,58,False,left,left,0.5695819854736328,189189,
0,59,True,left,right,1.0410289764404297,189189,
0,60,False,right,left,0.6091709136962891,189189,
0,61,False,left,left,0.8099558353424072,189189,
0,62,False,left,left,0.6623580455780029,189189,
0,63,False,left,right,1.1240558624267578,189189,
0,64,False,right,left,0.7210221290588379,189189,
0,65,False,left,right,1.0947799682617188,189189,
0,66,True,right,right,1.3804750442504883,189189,
0,67,False,left,left,0.708143949508667,189189,
0,68,False,right,right,1.1974101066589355,189189,
0,69,True,right,right,0.8760759830474854,189189,
0,70,False,left,left,0.6818010807037354,189189,
0,71,True,right,right,0.9332849979400635,189189,
0,72,False,left,left,1.5321030616760254,189189,
0,73,False,right,right,1.0104000568389893,189189,
0,74,False,right,left,1.6080689430236816,189189,
0,75,False,right,right,0.8258421421051025,189189,
0,76,False,right,right,0.8663320541381836,189189,
0,77,True,right,right,1.1832330226898193,189189,
0,78,True,left,left,1.110826015472412,189189,
0,79,False,left,left,1.1089069843292236,189189,
0,80,True,right,right,1.0494229793548584,189189,
0,81,True,left,left,1.0734190940856934,189189,
0,82,False,right,right,0.9766840934753418,189189,
0,83,True,right,left,0.6352791786193848,189189,
0,84,True,right,right,0.7276430130004883,189189,
0,85,True,left,left,1.0761640071868896,189189,
0,86,True,left,left,0.5787060260772705,189189,
0,87,True,right,right,0.7574160099029541,189189,
0,88,True,right,right,0.6693539619445801,189189,
0,89,False,left,left,1.136441946029663,189189,
0,90,True,right,right,0.82623291015625,189189,
0,91,False,right,left,0.8142049312591553,189189,
0,92,True,right,right,0.6385679244995117,189189,
0,93,True,right,right,0.833698034286499,189189,
0,94,True,right,right,0.6061551570892334,189189,
0,95,False,right,left,1.0654699802398682,189189,
0,96,True,right,right,0.8378598690032959,189189,
0,97,False,right,right,1.4588398933410645,189189,
0,98,True,right,right,0.6853640079498291,189189,
0,99,True,left,left,0.7912459373474121,189189,
1,0,False,right,right,1.1587231159210205,189189,
1,1,False,right,left,0.9563641548156738,189189,
1,2,False,right,right,0.610213041305542,189189,
1,3,True,right,left,0.9033360481262207,189189,
1,4,True,right,right,0.8736989498138428,189189,
1,5,False,right,right,0.7713289260864258,189189,
1,6,True,right,right,0.9193630218505859,189189,
1,7,False,left,right,2.0517139434814453,189189,
1,8,True,left,left,0.8808038234710693,189189,
1,9,False,right,right,0.5743780136108398,189189,
1,10,True,left,left,0.6969130039215088,189189,
1,11,False,left,left,0.9913690090179443,189189,
1,12,True,right,right,1.1072649955749512,189189,
1,13,True,left,left,0.8915531635284424,189189,
1,14,True,left,left,0.9570980072021484,189189,
1,15,True,right,right,0.879763126373291,189189,
1,16,False,right,left,1.4281620979309082,189189,
1,17,True,left,left,0.9958078861236572,189189,
1,18,True,left,left,0.6235849857330322,189189,
1,19,True,right,right,0.9662868976593018,189189,
1,20,True,left,left,0.7384750843048096,189189,
1,21,True,left,left,0.6960279941558838,189189,
1,22,True,left,left,0.6570968627929688,189189,
1,23,True,left,left,0.8008430004119873,189189,
1,24,True,right,right,0.827049970626831,189189,
1,25,False,left,left,0.6908538341522217,189189,
1,26,False,right,left,0.8799769878387451,189189,
1,27,True,left,left,0.6878249645233154,189189,
1,28,False,right,right,0.9700968265533447,189189,
1,29,True,right,right,0.8093788623809814,189189,
1,30,False,right,left,0.6034660339355469,189189,
1,31,True,left,left,0.8965790271759033,189189,
1,32,False,left,left,1.5259318351745605,189189,
1,33,True,right,right,0.8730969429016113,189189,
1,34,False,left,left,0.6358859539031982,189189,
1,35,True,right,right,0.5670568943023682,189189,
1,36,True,right,right,1.5572009086608887,189189,
1,37,False,left,right,0.9210841655731201,189189,
1,38,False,left,left,1.4403209686279297,189189,
1,39,False,right,left,1.2754929065704346,189189,
1,40,False,right,right,1.5724949836730957,189189,
1,41,True,right,right,1.2284259796142578,189189,
1,42,False,left,left,1.1587538719177246,189189,
1,43,False,left,left,1.2417809963226318,189189,
1,44,True,right,right,1.1725101470947266,189189,
1,45,True,right,right,0.7351670265197754,189189,
1,46,True,left,left,0.7877070903778076,189189,
1,47,True,left,left,0.6037929058074951,189189,
1,48,True,left,left,0.5593059062957764,189189,
1,49,True,left,left,0.8464429378509521,189189,
1,50,False,left,left,1.4097540378570557,189189,
1,51,False,right,right,1.1153030395507812,189189,
1,52,True,left,left,0.8977859020233154,189189,
1,53,False,left,right,0.6718690395355225,189189,
1,54,True,right,right,0.9672849178314209,189189,
1,55,True,left,left,0.9527609348297119,189189,
1,56,False,right,right,0.7893359661102295,189189,
1,57,False,left,left,1.0840840339660645,189189,
1,58,True,left,left,0.950106143951416,189189,
1,59,False,right,right,0.5743038654327393,189189,
1,60,False,right,right,0.7900779247283936,189189,
1,61,False,right,right,0.7423219680786133,189189,
1,62,False,right,left,1.04852294921875,189189,
1,63,False,right,right,0.6701419353485107,189189,
1,64,True,left,left,0.7315840721130371,189189,
1,65,False,left,left,1.8063859939575195,189189,
1,66,True,right,right,0.9207711219787598,189189,
1,67,True,right,right,1.0368380546569824,189189,
1,68,False,left,left,0.8213021755218506,189189,
1,69,True,right,right,1.0741169452667236,189189,
1,70,False,left,left,0.6846330165863037,189189,
1,71,True,left,left,0.7591869831085205,189189,
1,72,False,left,left,0.8393049240112305,189189,
1,73,False,right,right,1.1262118816375732,189189,
1,74,False,right,right,0.9838659763336182,189189,
1,75,False,left,left,1.255781888961792,189189,
1,76,True,left,left,0.8244171142578125,189189,
1,77,True,left,left,0.7787699699401855,189189,
1,78,False,left,left,0.7766399383544922,189189,
1,79,True,left,right,1.073652982711792,189189,
1,80,True,left,left,1.0477089881896973,189189,
1,81,False,left,left,1.1927039623260498,189189,
1,82,True,right,right,1.054945945739746,189189,
1,83,True,left,left,1.0155751705169678,189189,
1,84,False,right,left,1.3595318794250488,189189,
1,85,True,right,right,1.0947139263153076,189189,
1,86,False,left,left,0.9826099872589111,189189,
1,87,False,right,left,0.6222949028015137,189189,
1,88,False,right,right,1.3681669235229492,189189,
1,89,False,left,left,1.4376490116119385,189189,
1,90,False,right,right,0.938431978225708,189189,
1,91,True,left,left,1.0488319396972656,189189,
1,92,False,right,right,0.7791860103607178,189189,
1,93,True,right,right,0.8973598480224609,189189,
1,94,True,left,left,0.9845008850097656,189189,
1,95,True,left,left,0.8653309345245361,189189,
1,96,False,right,right,0.7396910190582275,189189,
1,97,True,right,left,0.9669411182403564,189189,
1,98,True,right,right,1.0086419582366943,189189,
1,99,True,right,right,0.9103519916534424,189189,
