block,trial,s1_state,direction,response,rt,pair,
0,0,True,right,right,0.5903201103210449,754128,
0,1,False,right,left,0.3939168453216553,754128,
0,2,True,left,left,0.556049108505249,754128,
0,3,False,left,left,1.237764835357666,754128,
0,4,False,left,left,0.42734503746032715,754128,
0,5,True,right,right,0.37221789360046387,754128,
0,6,True,left,left,0.41797614097595215,754128,
0,7,True,right,right,0.36345601081848145,754128,
0,8,False,right,left,0.5739450454711914,754128,
0,9,False,right,left,0.4840881824493408,754128,
0,10,False,right,left,0.35756802558898926,754128,
0,11,False,left,left,0.46180105209350586,754128,
0,12,True,left,left,0.43419408798217773,754128,
0,13,True,right,right,0.3434159755706787,754128,
0,14,False,left,left,0.5120761394500732,754128,
0,15,False,right,right,0.623878002166748,754128,
0,16,False,left,right,0.4529399871826172,754128,
0,17,True,left,right,0.3781309127807617,754128,
0,18,False,left,left,0.3715329170227051,754128,
0,19,True,right,right,0.3231949806213379,754128,
0,20,False,left,left,0.3987557888031006,754128,
0,21,True,left,right,0.2709329128265381,754128,
0,22,True,right,right,0.32710695266723633,754128,
0,23,False,left,left,0.3768799304962158,754128,
0,24,False,right,left,0.6875081062316895,754128,
0,25,True,right,right,1.0592670440673828,754128,
0,26,True,right,right,0.44146084785461426,754128,
0,27,True,right,right,0.3441281318664551,754128,
0,28,True,left,right,0.3611929416656494,754128,
0,29,False,right,right,0.5313680171966553,754128,
0,30,True,left,left,0.5224158763885498,754128,
0,31,False,left,right,0.5500459671020508,754128,
0,32,True,right,right,0.3605349063873291,754128,
0,33,False,left,left,0.5231599807739258,754128,
0,34,False,right,left,0.5946238040924072,754128,
0,35,True,left,left,0.4189610481262207,754128,
0,36,False,left,left,0.6132891178131104,754128,
0,37,True,right,right,0.4825859069824219,754128,
0,38,True,left,left,0.4818408489227295,754128,
0,39,False,right,left,0.41001105308532715,754128,
0,40,False,right,left,0.5542218685150146,754128,
0,41,True,right,right,0.48288607597351074,754128,
0,42,True,right,right,0.3772099018096924,754128,
0,43,False,left,left,0.36052393913269043,754128,
0,44,False,left,left,0.33120083808898926,754128,
0,45,True,left,left,0.4864828586578369,754128,
0,46,True,left,left,0.46579599380493164,754128,
0,47,True,left,right,0.3155679702758789,754128,
0,48,False,left,left,0.373460054397583,754128,
0,49,False,left,left,0.3539409637451172,754128,
0,50,False,left,left,0.27254796028137207,754128,
0,51,False,left,left,0.3761589527130127,754128,
0,52,False,right,left,0.3705270290374756,754128,
0,53,True,right,right,0.931689977645874,754128,
0,54,False,left,left,3.4812848567962646,754128,
0,55,False,right,left,0.4198729991912842,754128,
0,56,True,right,right,0.5972990989685059,754128,
0,57,True,right,right,0.5429930686950684,754128,
0,58,True,right,right,0.8801369667053223,754128,
0,59,True,left,left,0.509119987487793,754128,
0,60,False,right,right,0.47150182723999023,754128,
0,61,False,right,right,0.6274139881134033,754128,
0,62,False,left,left,0.6076841354370117,754128,
0,63,True,left,left,0.6244301795959473,754128,
0,64,False,right,right,2.5285260677337646,754128,
0,65,False,right,right,0.7019579410552979,754128,
0,66,False,left,left,0.45968008041381836,754128,
0,67,False,left,left,0.5730490684509277,754128,
0,68,True,right,right,0.3737058639526367,754128,
0,69,True,left,left,0.42171621322631836,754128,
0,70,False,left,left,0.4626591205596924,754128,
0,71,False,right,left,0.3889470100402832,754128,
0,72,True,left,left,0.4655129909515381,754128,
0,73,True,right,right,0.46842384338378906,754128,
0,74,True,right,right,0.4206259250640869,754128,
0,75,True,left,left,0.46985292434692383,754128,
0,76,False,right,left,0.44938206672668457,754128,
0,77,False,left,left,0.4655799865722656,754128,
0,78,True,left,left,0.5431840419769287,754128,
0,79,False,left,left,0.6066300868988037,754128,
0,80,False,right,left,0.5137698650360107,754128,
0,81,True,right,right,0.5566189289093018,754128,
0,82,True,right,right,0.44842100143432617,754128,
0,83,True,left,left,0.754694938659668,754128,
0,84,True,left,left,0.4446389675140381,754128,
0,85,False,left,left,0.8504369258880615,754128,
0,86,False,right,right,0.5505421161651611,754128,
0,87,False,left,left,0.6339859962463379,754128,
0,88,False,left,left,0.7527501583099365,754128,
0,89,False,right,right,0.541823148727417,754128,
0,90,True,left,left,0.5048069953918457,754128,
0,91,False,right,right,0.638718843460083,754128,
0,92,False,right,right,0.5487229824066162,754128,
0,93,True,left,left,0.435992956161499,754128,
0,94,True,left,right,0.534559965133667,754128,
0,95,False,right,left,1.5048341751098633,754128,
0,96,True,right,left,0.6798338890075684,754128,
0,97,False,right,left,0.5447080135345459,754128,
0,98,True,right,right,0.6247029304504395,754128,
0,99,False,right,right,0.5753078460693359,754128,
1,0,False,left,left,0.6292030811309814,754128,
1,1,True,right,right,0.3968501091003418,754128,
1,2,False,left,left,0.43074607849121094,754128,
1,3,True,left,left,2.921165943145752,754128,
1,4,False,left,left,0.6316990852355957,754128,
1,5,False,right,right,0.5767598152160645,754128,
1,6,False,right,left,0.4814269542694092,754128,
1,7,False,right,right,0.6132180690765381,754128,
1,8,True,right,right,0.4054551124572754,754128,
1,9,True,right,right,0.4557969570159912,754128,
1,10,True,left,right,0.4318809509277344,754128,
1,11,False,left,left,0.5050511360168457,754128,
1,12,False,left,left,0.4936230182647705,754128,
1,13,False,right,right,0.5903210639953613,754128,
1,14,True,left,left,0.5318849086761475,754128,
1,15,True,right,right,0.3763408660888672,754128,
1,16,True,right,right,0.5043959617614746,754128,
1,17,True,right,right,0.4478161334991455,754128,
1,18,False,right,right,0.5328729152679443,754128,
1,19,False,left,left,0.5850322246551514,754128,
1,20,True,left,left,0.48396897315979004,754128,
1,21,False,left,left,0.4086339473724365,754128,
1,22,True,left,left,0.46277499198913574,754128,
1,23,False,left,left,0.44036197662353516,754128,
1,24,True,right,right,0.419205904006958,754128,
1,25,True,left,left,0.5105960369110107,754128,
1,26,True,right,right,0.4302940368652344,754128,
1,27,True,left,left,0.461392879486084,754128,
1,28,False,left,left,0.5098419189453125,754128,
1,29,False,right,right,0.517852783203125,754128,
1,30,True,left,left,0.39432692527770996,754128,
1,31,True,right,right,0.5595028400421143,754128,
1,32,False,left,left,0.4382669925689697,754128,
1,33,True,right,right,0.504551887512207,754128,
1,34,True,right,right,1.1602659225463867,754128,
1,35,False,left,left,0.4215271472930908,754128,
1,36,False,left,left,0.4176969528198242,754128,
1,37,False,left,left,0.39392900466918945,754128,
1,38,True,left,left,0.5268211364746094,754128,
1,39,True,left,left,0.4810199737548828,754128,
1,40,False,left,left,0.3913900852203369,754128,
1,41,True,right,right,0.367811918258667,754128,
1,42,False,left,left,0.4206972122192383,754128,
1,43,False,left,left,0.43693089485168457,754128,
1,44,False,right,left,0.5339760780334473,754128,
1,45,False,right,left,0.6731729507446289,754128,
1,46,True,left,left,0.48458003997802734,754128,
1,47,True,right,right,0.4453098773956299,754128,
1,48,True,right,right,0.469959020614624,754128,
1,49,False,right,right,0.48884105682373047,754128,
1,50,True,left,left,0.4842250347137451,754128,
1,51,True,right,right,0.34228086471557617,754128,
1,52,False,left,left,0.4570169448852539,754128,
1,53,True,right,right,1.0834290981292725,754128,
1,54,True,right,right,0.5319221019744873,754128,
1,55,False,left,left,0.43074488639831543,754128,
1,56,False,right,left,0.4055449962615967,754128,
1,57,False,right,left,0.5134439468383789,754128,
1,58,False,right,left,0.6722030639648438,754128,
1,59,True,left,left,0.385836124420166,754128,
1,60,True,right,right,0.7406458854675293,754128,
1,61,True,right,right,0.3760490417480469,754128,
1,62,False,right,left,0.5152738094329834,754128,
1,63,False,right,right,0.5379810333251953,754128,
1,64,False,left,left,0.3941230773925781,754128,
1,65,False,right,right,0.572066068649292,754128,
1,66,True,left,left,0.5568668842315674,754128,
1,67,False,right,right,0.8634939193725586,754128,
1,68,False,right,right,0.6362850666046143,754128,
1,69,True,right,right,0.5102708339691162,754128,
1,70,False,left,left,0.4676690101623535,754128,
1,71,False,right,left,0.4550180435180664,754128,
1,72,True,right,right,0.39634013175964355,754128,
1,73,False,right,right,0.4703099727630615,754128,
1,74,True,left,left,0.5276098251342773,754128,
1,75,False,right,right,0.5557019710540771,754128,
1,76,False,left,left,0.4745609760284424,754128,
1,77,False,left,left,0.487407922744751,754128,
1,78,False,right,right,0.3911888599395752,754128,
1,79,False,right,left,0.419605016708374,754128,
1,80,True,right,right,1.3147878646850586,754128,
1,81,False,left,left,0.4307901859283447,754128,
1,82,True,left,left,0.42471909523010254,754128,
1,83,True,right,right,0.4957728385925293,754128,
1,84,False,left,left,0.4367401599884033,754128,
1,85,False,left,left,0.4584360122680664,754128,
1,86,True,right,right,0.371661901473999,754128,
1,87,True,left,left,0.4968140125274658,754128,
1,88,False,left,left,0.5852320194244385,754128,
1,89,True,right,right,0.6185591220855713,754128,
1,90,True,left,left,0.49468088150024414,754128,
1,91,False,right,right,0.590069055557251,754128,
1,92,True,left,left,0.4859471321105957,754128,
1,93,True,left,right,0.6401958465576172,754128,
1,94,False,left,left,0.5029478073120117,754128,
1,95,True,right,right,0.5508060455322266,754128,
1,96,False,right,left,0.6639480590820312,754128,
1,97,False,left,right,0.5818228721618652,754128,
1,98,True,left,left,0.5463011264801025,754128,
1,99,False,left,left,0.855971097946167,754128,
2,0,False,right,right,0.6782548427581787,754128,
2,1,True,right,right,0.41579484939575195,754128,
2,2,False,left,left,0.5037651062011719,754128,
2,3,True,right,right,0.405487060546875,754128,
2,4,False,left,left,0.4257669448852539,754128,
2,5,False,left,left,0.5596230030059814,754128,
2,6,True,right,right,0.3192250728607178,754128,
2,7,True,left,left,0.5308690071105957,754128,
2,8,False,left,left,0.37102603912353516,754128,
2,9,False,right,right,0.45473408699035645,754128,
2,10,True,left,left,0.3964998722076416,754128,
2,11,True,right,right,0.44756293296813965,754128,
2,12,False,right,left,0.34458303451538086,754128,
2,13,False,right,right,0.4079291820526123,754128,
2,14,True,right,right,0.4432229995727539,754128,
2,15,True,left,left,0.5102939605712891,754128,
2,16,True,left,left,0.4620521068572998,754128,
2,17,True,left,left,0.33179807662963867,754128,
2,18,True,right,right,0.33895182609558105,754128,
2,19,True,right,right,0.37949585914611816,754128,
2,20,True,right,left,0.34816789627075195,754128,
2,21,False,left,left,0.3955349922180176,754128,
2,22,True,right,right,0.4894838333129883,754128,
2,23,False,left,left,0.30745911598205566,754128,
2,24,True,left,left,0.621042013168335,754128,
2,25,True,right,right,0.37775087356567383,754128,
2,26,True,left,left,0.38724684715270996,754128,
2,27,False,right,right,0.42122507095336914,754128,
2,28,False,right,right,0.3607959747314453,754128,
2,29,False,right,left,0.4753530025482178,754128,
2,30,False,right,right,0.44508886337280273,754128,
2,31,True,left,left,0.4945387840270996,754128,
2,32,True,left,left,0.3813338279724121,754128,
2,33,False,right,right,0.5966689586639404,754128,
2,34,True,left,left,0.46256399154663086,754128,
2,35,False,right,left,0.8033750057220459,754128,
2,36,True,right,right,1.005985975265503,754128,
2,37,True,left,left,0.35777997970581055,754128,
2,38,True,left,left,0.48800086975097656,754128,
2,39,True,left,left,0.4327828884124756,754128,
2,40,False,right,right,0.5366079807281494,754128,
2,41,False,left,left,0.5409319400787354,754128,
2,42,False,right,left,0.4532589912414551,754128,
2,43,True,right,right,0.42699289321899414,754128,
2,44,False,right,right,0.6128709316253662,754128,
2,45,True,right,right,0.45209407806396484,754128,
2,46,False,right,left,0.6171970367431641,754128,
2,47,False,left,left,0.5149359703063965,754128,
2,48,False,left,left,0.4339430332183838,754128,
2,49,False,left,left,0.404325008392334,754128,
2,50,False,right,left,0.3630199432373047,754128,
2,51,False,left,left,0.408627986907959,754128,
2,52,False,left,left,0.5969550609588623,754128,
2,53,True,left,left,0.5853989124298096,754128,
2,54,True,left,left,0.5265049934387207,754128,
2,55,False,left,left,0.4305381774902344,754128,
2,56,True,right,right,0.46320581436157227,754128,
2,57,False,left,left,0.4396390914916992,754128,
2,58,True,left,left,0.4076070785522461,754128,
2,59,False,right,right,0.5638530254364014,754128,
2,60,False,right,right,0.5965209007263184,754128,
2,61,True,right,right,0.43282485008239746,754128,
2,62,False,left,right,0.41171813011169434,754128,
2,63,True,right,right,0.4328441619873047,754128,
2,64,True,right,right,0.44426989555358887,754128,
2,65,True,right,right,0.43749308586120605,754128,
2,66,False,left,left,0.4574851989746094,754128,
2,67,True,right,right,0.4692227840423584,754128,
2,68,True,left,left,0.4141199588775635,754128,
2,69,True,left,left,0.39163708686828613,754128,
2,70,True,right,right,0.4639468193054199,754128,
2,71,True,left,left,0.43031883239746094,754128,
2,72,True,right,right,0.43076300621032715,754128,
2,73,True,left,left,0.46460914611816406,754128,
2,74,False,right,right,0.4375648498535156,754128,
2,75,True,right,right,0.44718194007873535,754128,
2,76,True,left,left,0.3805689811706543,754128,
2,77,False,left,left,0.4835381507873535,754128,
2,78,False,left,left,0.5280048847198486,754128,
2,79,True,left,left,0.5079019069671631,754128,
2,80,False,left,left,0.4846820831298828,754128,
2,81,True,right,right,0.5414538383483887,754128,
2,82,True,left,left,0.4844319820404053,754128,
2,83,False,right,right,0.44931793212890625,754128,
2,84,True,left,left,0.5376229286193848,754128,
2,85,True,left,left,0.40067601203918457,754128,
2,86,False,right,right,0.37282896041870117,754128,
2,87,True,right,right,1.1522068977355957,754128,
2,88,False,right,left,0.36403489112854004,754128,
2,89,False,left,left,0.4480600357055664,754128,
2,90,False,right,left,0.4181101322174072,754128,
2,91,False,right,right,0.5752730369567871,754128,
2,92,False,left,left,0.49011802673339844,754128,
2,93,False,left,left,0.4492189884185791,754128,
2,94,False,right,right,0.5046730041503906,754128,
2,95,False,left,left,0.38615894317626953,754128,
2,96,True,left,left,0.5285069942474365,754128,
2,97,False,left,right,0.4385061264038086,754128,
2,98,False,right,right,0.6191380023956299,754128,
2,99,False,right,right,0.5531778335571289,754128,
3,0,False,left,left,0.5847389698028564,754128,
3,1,True,left,left,1.008375883102417,754128,
3,2,True,left,left,0.49391794204711914,754128,
3,3,True,right,right,0.4548649787902832,754128,
3,4,False,left,left,0.37561798095703125,754128,
3,5,True,right,right,0.5424599647521973,754128,
3,6,False,right,left,0.4030120372772217,754128,
3,7,True,right,right,0.4703030586242676,754128,
3,8,False,left,left,0.46303701400756836,754128,
3,9,True,right,right,0.44530582427978516,754128,
3,10,False,right,right,0.6515700817108154,754128,
3,11,True,left,left,0.46123313903808594,754128,
3,12,False,left,left,0.44580912590026855,754128,
3,13,True,right,right,0.44393277168273926,754128,
3,14,True,left,left,0.3806130886077881,754128,
3,15,True,left,left,0.5128099918365479,754128,
3,16,False,right,left,0.3563408851623535,754128,
3,17,False,right,right,0.5479941368103027,754128,
3,18,False,right,left,0.5674111843109131,754128,
3,19,False,left,left,0.5199599266052246,754128,
3,20,True,right,right,0.4580371379852295,754128,
3,21,True,left,left,0.5148830413818359,754128,
3,22,True,left,left,0.407271146774292,754128,
3,23,True,left,left,0.3310689926147461,754128,
3,24,False,right,right,0.64357590675354,754128,
3,25,True,left,left,0.431581974029541,754128,
3,26,False,left,left,0.3896520137786865,754128,
3,27,True,right,right,0.4096190929412842,754128,
3,28,False,left,left,0.45349884033203125,754128,
3,29,True,left,left,0.5160849094390869,754128,
3,30,False,left,left,0.5790121555328369,754128,
3,31,False,left,left,0.5820760726928711,754128,
3,32,False,right,right,0.5757319927215576,754128,
3,33,False,right,left,0.43872904777526855,754128,
3,34,True,left,left,0.38488101959228516,754128,
3,35,False,left,left,0.44470810890197754,754128,
3,36,True,right,right,0.3943190574645996,754128,
3,37,False,right,right,0.46742701530456543,754128,
3,38,True,right,right,0.32970380783081055,754128,
3,39,True,right,right,0.42664480209350586,754128,
3,40,False,left,left,0.4324820041656494,754128,
3,41,False,right,left,0.3672800064086914,754128,
3,42,True,right,right,0.5012509822845459,754128,
3,43,False,left,left,0.45810389518737793,754128,
3,44,False,right,right,0.43325304985046387,754128,
3,45,True,left,left,0.3610808849334717,754128,
3,46,True,right,right,0.3166370391845703,754128,
3,47,False,right,right,0.5900049209594727,754128,
3,48,True,left,left,0.43158698081970215,754128,
3,49,False,right,right,0.6102149486541748,754128,
3,50,True,right,left,0.44286489486694336,754128,
3,51,True,left,left,0.5852880477905273,754128,
3,52,True,right,right,0.261091947555542,754128,
3,53,True,left,left,0.39337801933288574,754128,
3,54,False,left,left,0.7324779033660889,754128,
3,55,False,left,left,0.436201810836792,754128,
3,56,True,left,right,0.747215986251831,754128,
3,57,False,right,right,0.5853869915008545,754128,
3,58,True,right,right,0.42021894454956055,754128,
3,59,False,left,left,1.9403531551361084,754128,
3,60,False,left,left,0.4902670383453369,754128,
3,61,True,left,left,0.4663379192352295,754128,
3,62,True,left,left,0.3686099052429199,754128,
3,63,False,left,left,0.3975541591644287,754128,
3,64,False,right,left,0.40412092208862305,754128,
3,65,True,left,left,0.41335487365722656,754128,
3,66,False,left,left,0.5723929405212402,754128,
3,67,False,right,left,0.40232205390930176,754128,
3,68,False,right,right,0.521367073059082,754128,
3,69,False,left,left,0.45387983322143555,754128,
3,70,True,left,right,0.2113020420074463,754128,
3,71,True,right,right,0.45647382736206055,754128,
3,72,True,left,left,0.43822598457336426,754128,
3,73,True,left,left,0.5827200412750244,754128,
3,74,False,right,left,0.3457329273223877,754128,
3,75,True,left,left,0.5401349067687988,754128,
3,76,False,right,left,0.45348501205444336,754128,
3,77,True,left,left,0.511660099029541,754128,
3,78,True,right,right,0.39856386184692383,754128,
3,79,True,right,right,0.452319860458374,754128,
3,80,False,left,left,0.5188169479370117,754128,
3,81,False,right,right,0.43828701972961426,754128,
3,82,False,right,left,0.5315489768981934,754128,
3,83,True,right,right,0.45766186714172363,754128,
3,84,True,right,right,0.596714973449707,754128,
3,85,True,right,right,0.3962090015411377,754128,
3,86,True,right,right,0.45328688621520996,754128,
3,87,False,left,left,0.6308820247650146,754128,
3,88,True,right,right,0.3797760009765625,754128,
3,89,False,left,left,0.4516170024871826,754128,
3,90,False,right,right,0.5178070068359375,754128,
3,91,True,left,left,2.6027281284332275,754128,
3,92,True,left,left,0.41681504249572754,754128,
3,93,True,left,left,0.5903608798980713,754128,
3,94,False,left,right,0.43309688568115234,754128,
3,95,False,right,right,0.5246779918670654,754128,
3,96,True,right,right,0.469573974609375,754128,
3,97,False,right,left,0.4798581600189209,754128,
3,98,True,right,left,0.5522840023040771,754128,
3,99,True,right,right,0.5058391094207764,754128,
4,0,True,right,right,1.03084397315979,754128,
4,1,True,right,right,0.4221479892730713,754128,
4,2,False,left,left,0.5042779445648193,754128,
4,3,False,left,left,0.5214271545410156,754128,
4,4,False,left,left,0.47739481925964355,754128,
4,5,True,left,left,0.7695739269256592,754128,
4,6,False,right,left,0.5310690402984619,754128,
4,7,True,right,right,0.4135279655456543,754128,
4,8,False,right,left,0.4081740379333496,754128,
4,9,True,left,left,0.3830230236053467,754128,
4,10,True,left,right,0.29450011253356934,754128,
4,11,True,right,right,0.3216400146484375,754128,
4,12,True,left,left,0.5132381916046143,754128,
4,13,False,right,right,0.5206818580627441,754128,
4,14,True,right,right,0.43850183486938477,754128,
4,15,False,right,left,0.409804105758667,754128,
4,16,True,right,right,0.3590419292449951,754128,
4,17,False,left,left,0.5267291069030762,754128,
4,18,False,right,left,0.43275904655456543,754128,
4,19,False,left,left,0.4836568832397461,754128,
4,20,False,left,left,0.4066901206970215,754128,
4,21,True,left,left,0.6205830574035645,754128,
4,22,True,right,right,0.4132659435272217,754128,
4,23,False,right,left,0.4212031364440918,754128,
4,24,False,left,left,0.405012845993042,754128,
4,25,False,left,left,0.4134800434112549,754128,
4,26,True,right,right,0.48229289054870605,754128,
4,27,True,left,left,0.445310115814209,754128,
4,28,True,right,right,0.3815500736236572,754128,
4,29,False,left,left,0.4799668788909912,754128,
4,30,False,left,right,0.49913597106933594,754128,
4,31,True,left,left,0.7013978958129883,754128,
4,32,True,left,left,0.5264370441436768,754128,
4,33,True,left,left,0.39891505241394043,754128,
4,34,False,left,left,0.6804699897766113,754128,
4,35,True,right,right,0.5183188915252686,754128,
4,36,False,right,right,0.6627349853515625,754128,
4,37,True,left,left,0.6124141216278076,754128,
4,38,True,right,right,0.5027410984039307,754128,
4,39,True,right,right,0.7883360385894775,754128,
4,40,False,right,right,0.5168399810791016,754128,
4,41,False,left,left,0.8760011196136475,754128,
4,42,False,right,right,0.5159389972686768,754128,
4,43,False,right,left,0.4964640140533447,754128,
4,44,False,left,left,0.722891092300415,754128,
4,45,True,left,left,0.4169158935546875,754128,
4,46,True,left,left,0.44573497772216797,754128,
4,47,False,right,right,0.5163528919219971,754128,
4,48,False,right,right,0.5803570747375488,754128,
4,49,True,right,right,1.2652349472045898,754128,
4,50,True,left,left,0.5812351703643799,754128,
4,51,False,left,right,0.6121737957000732,754128,
4,52,True,right,right,0.6483380794525146,754128,
4,53,False,left,left,0.49033308029174805,754128,
4,54,False,left,left,0.46445202827453613,754128,
4,55,True,right,right,0.359713077545166,754128,
4,56,True,left,left,0.3890690803527832,754128,
4,57,False,left,left,0.492124080657959,754128,
4,58,False,right,right,0.692436933517456,754128,
4,59,False,left,left,0.552238941192627,754128,
4,60,True,right,right,0.49622297286987305,754128,
4,61,True,left,left,0.4058089256286621,754128,
4,62,False,left,right,0.44652795791625977,754128,
4,63,False,left,left,0.46452808380126953,754128,
4,64,False,right,right,0.4899880886077881,754128,
4,65,True,right,right,0.43833303451538086,754128,
4,66,True,right,right,0.4991269111633301,754128,
4,67,True,right,right,0.47567200660705566,754128,
4,68,True,left,left,0.5268430709838867,754128,
4,69,True,right,right,0.5105209350585938,754128,
4,70,False,right,left,0.5270578861236572,754128,
4,71,True,right,right,0.503046989440918,754128,
4,72,False,right,right,0.5448660850524902,754128,
4,73,False,left,left,0.5255839824676514,754128,
4,74,True,right,right,0.418658971786499,754128,
4,75,True,right,right,0.3319060802459717,754128,
4,76,True,right,right,0.30277013778686523,754128,
4,77,False,right,right,0.6072490215301514,754128,
4,78,False,left,left,0.5463712215423584,754128,
4,79,False,right,right,0.4878368377685547,754128,
4,80,False,left,left,0.47211313247680664,754128,
4,81,True,left,left,0.6737310886383057,754128,
4,82,False,left,right,0.535991907119751,754128,
4,83,True,right,right,0.27881813049316406,754128,
4,84,False,right,left,0.5609800815582275,754128,
4,85,False,left,left,0.4872708320617676,754128,
4,86,True,left,left,0.4169020652770996,754128,
4,87,False,left,right,0.5393848419189453,754128,
4,88,True,right,right,0.3167388439178467,754128,
4,89,False,left,left,0.5246520042419434,754128,
4,90,False,right,right,0.9378981590270996,754128,
4,91,False,left,left,0.5622198581695557,754128,
4,92,True,left,left,0.40768909454345703,754128,
4,93,True,right,right,0.38412904739379883,754128,
4,94,False,right,left,0.566533088684082,754128,
4,95,False,right,left,0.4438631534576416,754128,
4,96,False,left,left,0.4534111022949219,754128,
4,97,True,left,left,0.29897093772888184,754128,
4,98,False,left,left,0.8361988067626953,754128,
4,99,True,right,right,0.3796370029449463,754128,
5,0,False,left,right,1.4991629123687744,754128,
5,1,True,left,right,0.44936108589172363,754128,
5,2,False,right,left,0.3525118827819824,754128,
5,3,False,left,right,0.312122106552124,754128,
5,4,False,left,left,0.3343851566314697,754128,
5,5,False,right,left,0.3474440574645996,754128,
5,6,True,left,left,0.46366190910339355,754128,
5,7,False,left,left,0.4499039649963379,754128,
5,8,False,right,right,0.5079989433288574,754128,
5,9,False,right,left,0.51230788230896,754128,
5,10,True,right,right,0.49808311462402344,754128,
5,11,True,left,left,0.45537900924682617,754128,
5,12,False,left,right,0.49997591972351074,754128,
5,13,True,right,right,0.4522058963775635,754128,
5,14,False,right,left,0.4420969486236572,754128,
5,15,True,right,right,0.49527692794799805,754128,
5,16,True,left,left,0.42649292945861816,754128,
5,17,False,right,right,0.4241180419921875,754128,
5,18,False,left,right,0.36314988136291504,754128,
5,19,False,right,right,0.3750298023223877,754128,
5,20,True,right,right,1.3059871196746826,754128,
5,21,False,left,left,0.4770469665527344,754128,
5,22,False,right,left,1.3028838634490967,754128,
5,23,True,left,right,0.3326301574707031,754128,
5,24,False,right,right,0.5917379856109619,754128,
5,25,False,left,right,0.47734713554382324,754128,
5,26,True,right,right,0.3744218349456787,754128,
5,27,False,left,left,0.4224529266357422,754128,
5,28,False,right,right,0.5879459381103516,754128,
5,29,False,left,left,0.44411802291870117,754128,
5,30,True,right,right,0.6261348724365234,754128,
5,31,True,right,right,0.9039850234985352,754128,
5,32,False,right,left,0.38798093795776367,754128,
5,33,True,left,left,0.6131401062011719,754128,
5,34,False,left,left,0.5510950088500977,754128,
5,35,True,left,left,0.5830039978027344,754128,
5,36,True,left,left,0.7036159038543701,754128,
5,37,False,left,left,0.6950089931488037,754128,
5,38,True,left,left,0.48015809059143066,754128,
5,39,True,left,left,0.5355401039123535,754128,
5,40,False,right,right,1.356889009475708,754128,
5,41,True,left,right,0.5865490436553955,754128,
5,42,False,right,right,0.4975271224975586,754128,
5,43,False,left,right,0.5527889728546143,754128,
5,44,True,right,right,0.32593297958374023,754128,
5,45,True,left,left,0.5498208999633789,754128,
5,46,True,left,left,0.5520050525665283,754128,
5,47,False,left,right,0.4178781509399414,754128,
5,48,False,left,left,0.4858710765838623,754128,
5,49,False,left,left,0.44936299324035645,754128,
5,50,True,left,left,0.46550488471984863,754128,
5,51,False,right,right,0.5322871208190918,754128,
5,52,True,right,right,0.46663498878479004,754128,
5,53,False,right,right,0.4476277828216553,754128,
5,54,True,right,right,0.619063138961792,754128,
5,55,False,left,right,0.5203018188476562,754128,
5,56,True,right,right,0.47591090202331543,754128,
5,57,False,left,right,0.3936779499053955,754128,
5,58,True,left,left,0.4893651008605957,754128,
5,59,True,right,right,0.441896915435791,754128,
5,60,True,right,right,0.4744138717651367,754128,
5,61,True,left,left,0.5286688804626465,754128,
5,62,False,left,left,0.636756181716919,754128,
5,63,False,right,left,0.3365459442138672,754128,
5,64,True,right,right,0.4270820617675781,754128,
5,65,True,right,right,0.6746499538421631,754128,
5,66,True,left,left,0.6263589859008789,754128,
5,67,False,right,left,0.3781709671020508,754128,
5,68,True,left,left,0.5284230709075928,754128,
5,69,True,left,left,0.47956395149230957,754128,
5,70,False,right,right,0.4656639099121094,754128,
5,71,True,right,left,0.4083411693572998,754128,
5,72,True,right,right,0.37340784072875977,754128,
5,73,True,left,left,0.48956894874572754,754128,
5,74,False,left,left,0.4349710941314697,754128,
5,75,False,right,right,0.4302518367767334,754128,
5,76,False,right,right,0.5041241645812988,754128,
5,77,True,left,left,0.46259117126464844,754128,
5,78,False,right,left,0.8849740028381348,754128,
5,79,True,right,right,0.6220388412475586,754128,
5,80,True,right,right,0.5002601146697998,754128,
5,81,True,left,left,0.5216748714447021,754128,
5,82,False,right,right,0.4683539867401123,754128,
5,83,True,left,left,0.7084119319915771,754128,
5,84,False,left,right,0.5406789779663086,754128,
5,85,True,right,right,0.513617992401123,754128,
5,86,True,right,right,0.4616830348968506,754128,
5,87,True,right,right,0.4703030586242676,754128,
5,88,False,right,right,0.47122979164123535,754128,
5,89,True,left,left,0.4397571086883545,754128,
5,90,False,right,left,0.4121370315551758,754128,
5,91,True,right,right,0.4590790271759033,754128,
5,92,True,right,right,0.5212650299072266,754128,
5,93,True,left,left,0.8346560001373291,754128,
5,94,False,right,right,0.48130297660827637,754128,
5,95,True,left,left,0.3761708736419678,754128,
5,96,False,right,right,0.4691751003265381,754128,
5,97,False,left,left,0.5564939975738525,754128,
5,98,True,left,left,0.5370490550994873,754128,
5,99,False,left,left,0.4519801139831543,754128,
6,0,False,right,right,0.48139286041259766,754128,
6,1,False,right,right,0.5046849250793457,754128,
6,2,False,right,right,0.44551897048950195,754128,
6,3,False,left,left,0.481381893157959,754128,
6,4,False,right,right,0.39354705810546875,754128,
6,5,False,left,left,0.34606289863586426,754128,
6,6,False,left,right,0.3937399387359619,754128,
6,7,False,right,left,0.3229799270629883,754128,
6,8,True,left,left,0.4098498821258545,754128,
6,9,True,right,right,0.36356496810913086,754128,
6,10,True,right,left,0.2118220329284668,754128,
6,11,True,left,left,0.5126850605010986,754128,
6,12,False,right,right,0.6088550090789795,754128,
6,13,True,right,right,0.38561296463012695,754128,
6,14,False,left,left,0.41645193099975586,754128,
6,15,False,left,right,0.4916799068450928,754128,
6,16,True,left,left,0.45348691940307617,754128,
6,17,True,left,left,0.48960304260253906,754128,
6,18,True,right,right,0.38483285903930664,754128,
6,19,True,right,right,0.4540741443634033,754128,
6,20,False,right,right,0.47603511810302734,754128,
6,21,True,right,right,0.7908220291137695,754128,
6,22,False,left,left,0.4046938419342041,754128,
6,23,False,right,right,0.42378807067871094,754128,
6,24,False,left,left,0.36977505683898926,754128,
6,25,True,left,left,0.491840124130249,754128,
6,26,False,right,right,0.3961319923400879,754128,
6,27,True,left,left,0.45239996910095215,754128,
6,28,False,left,right,0.3963449001312256,754128,
6,29,True,left,right,0.3304178714752197,754128,
6,30,False,left,left,0.45558905601501465,754128,
6,31,True,left,right,0.6473550796508789,754128,
6,32,True,right,right,0.9666070938110352,754128,
6,33,True,right,right,0.7253730297088623,754128,
6,34,False,right,left,0.31756591796875,754128,
6,35,True,right,right,0.37665605545043945,754128,
6,36,False,right,left,0.4802730083465576,754128,
6,37,True,right,right,0.3895759582519531,754128,
6,38,False,left,left,0.3492610454559326,754128,
6,39,True,right,right,0.34481287002563477,754128,
6,40,True,right,right,0.41021013259887695,754128,
6,41,False,right,right,0.47215795516967773,754128,
6,42,True,right,right,0.35458922386169434,754128,
6,43,True,left,left,0.48795604705810547,754128,
6,44,False,right,left,0.37033605575561523,754128,
6,45,True,right,right,0.5328371524810791,754128,
6,46,False,left,left,0.43942904472351074,754128,
6,47,False,left,left,0.44628000259399414,754128,
6,48,True,right,right,0.4132421016693115,754128,
6,49,True,right,right,0.44272804260253906,754128,
6,50,False,right,left,0.37763214111328125,754128,
6,51,False,left,left,0.3848388195037842,754128,
6,52,False,left,left,0.3444070816040039,754128,
6,53,False,right,left,0.31368207931518555,754128,
6,54,True,right,right,0.4065539836883545,754128,
6,55,False,right,left,0.4360208511352539,754128,
6,56,False,left,left,0.34018707275390625,754128,
6,57,False,left,left,0.34157299995422363,754128,
6,58,False,right,left,0.3558199405670166,754128,
6,59,True,left,left,0.3689439296722412,754128,
6,60,True,left,left,0.4270668029785156,754128,
6,61,False,left,left,0.4228789806365967,754128,
6,62,False,right,left,0.37312889099121094,754128,
6,63,True,right,right,0.4254729747772217,754128,
6,64,False,left,left,0.41739511489868164,754128,
6,65,False,right,right,0.5377950668334961,754128,
6,66,False,right,left,0.48543405532836914,754128,
6,67,True,left,left,0.5337040424346924,754128,
6,68,False,left,right,0.5570321083068848,754128,
6,69,True,left,left,0.8556318283081055,754128,
6,70,True,left,left,0.40747499465942383,754128,
6,71,False,left,left,0.8871731758117676,754128,
6,72,True,left,left,0.8097221851348877,754128,
6,73,True,right,right,0.5168578624725342,754128,
6,74,True,right,right,0.6118829250335693,754128,
6,75,False,right,right,0.5117909908294678,754128,
6,76,True,left,left,0.4538900852203369,754128,
6,77,True,right,right,0.5087440013885498,754128,
6,78,True,right,right,0.5034189224243164,754128,
6,79,True,left,left,0.43976497650146484,754128,
6,80,True,left,left,0.4477400779724121,754128,
6,81,False,left,right,0.6898980140686035,754128,
6,82,False,left,left,0.6753280162811279,754128,
6,83,True,left,left,0.4008181095123291,754128,
6,84,False,right,right,0.4104580879211426,754128,
6,85,False,left,left,0.560197114944458,754128,
6,86,False,left,left,0.47458600997924805,754128,
6,87,False,right,left,0.4000868797302246,754128,
6,88,False,right,left,0.4141819477081299,754128,
6,89,True,right,right,0.3130810260772705,754128,
6,90,True,left,left,0.3483119010925293,754128,
6,91,False,left,left,0.6330468654632568,754128,
6,92,False,right,right,1.0867400169372559,754128,
6,93,True,left,left,0.44749903678894043,754128,
6,94,False,left,left,0.49327802658081055,754128,
6,95,True,left,left,0.5019750595092773,754128,
6,96,True,right,left,0.4513530731201172,754128,
6,97,False,left,left,0.4469180107116699,754128,
6,98,False,left,right,0.39441800117492676,754128,
6,99,False,right,right,0.5148138999938965,754128,
7,0,False,right,right,0.5619759559631348,754128,
7,1,False,left,right,0.5290038585662842,754128,
7,2,False,left,left,0.5255060195922852,754128,
7,3,False,right,right,0.443681001663208,754128,
7,4,True,right,right,0.39725303649902344,754128,
7,5,False,right,left,0.4620528221130371,754128,
7,6,False,left,right,0.3789331912994385,754128,
7,7,False,right,left,0.40383100509643555,754128,
7,8,True,left,left,0.3215911388397217,754128,
7,9,False,right,left,0.35071587562561035,754128,
7,10,True,left,left,0.3567659854888916,754128,
7,11,True,right,right,0.4782559871673584,754128,
7,12,True,left,left,0.4078488349914551,754128,
7,13,True,left,left,0.4701509475708008,754128,
7,14,True,right,right,0.550764799118042,754128,
7,15,True,right,right,0.40432286262512207,754128,
7,16,False,left,right,0.7756578922271729,754128,
7,17,True,left,left,0.4135899543762207,754128,
7,18,False,left,left,0.7157740592956543,754128,
7,19,True,left,left,0.5164380073547363,754128,
7,20,False,right,right,0.5643270015716553,754128,
7,21,False,left,left,0.5199370384216309,754128,
7,22,True,right,right,0.46202802658081055,754128,
7,23,False,right,right,0.46782398223876953,754128,
7,24,True,right,right,0.38336896896362305,754128,
7,25,True,right,right,0.40535807609558105,754128,
7,26,True,left,left,0.4952421188354492,754128,
7,27,False,right,right,0.46450114250183105,754128,
7,28,False,left,left,0.548469066619873,754128,
7,29,False,right,right,0.5635950565338135,754128,
7,30,True,right,right,0.30510997772216797,754128,
7,31,True,right,right,0.3969848155975342,754128,
7,32,True,left,left,0.3668649196624756,754128,
7,33,True,left,right,0.32369184494018555,754128,
7,34,True,left,left,0.3614981174468994,754128,
7,35,False,left,left,0.4380311965942383,754128,
7,36,False,right,left,0.43761301040649414,754128,
7,37,True,left,left,0.5137288570404053,754128,
7,38,True,left,left,0.47501277923583984,754128,
7,39,False,right,left,0.5179018974304199,754128,
7,40,True,right,right,0.496959924697876,754128,
7,41,False,right,left,0.5115180015563965,754128,
7,42,True,right,right,0.531256914138794,754128,
7,43,False,left,left,0.4954850673675537,754128,
7,44,True,right,right,0.347506046295166,754128,
7,45,True,right,right,0.3754401206970215,754128,
7,46,True,left,left,0.3518991470336914,754128,
7,47,False,right,left,0.4856250286102295,754128,
7,48,False,left,right,0.5676219463348389,754128,
7,49,False,left,left,0.47220516204833984,754128,
7,50,True,right,right,0.42559099197387695,754128,
7,51,False,left,left,0.5665600299835205,754128,
7,52,True,right,right,0.35569286346435547,754128,
7,53,False,right,left,0.5638360977172852,754128,
7,54,True,right,right,0.40037107467651367,754128,
7,55,True,left,left,0.4665980339050293,754128,
7,56,False,left,left,0.45476412773132324,754128,
7,57,False,left,left,0.4513530731201172,754128,
7,58,False,left,left,0.3962588310241699,754128,
7,59,False,left,left,0.03190112113952637,754128,
7,60,True,left,left,0.3858170509338379,754128,
7,61,True,left,left,0.31911587715148926,754128,
7,62,False,right,left,0.6061160564422607,754128,
7,63,False,right,right,0.48249316215515137,754128,
7,64,False,left,left,0.5481979846954346,754128,
7,65,True,right,right,0.33693790435791016,754128,
7,66,False,right,left,0.7033050060272217,754128,
7,67,True,left,left,0.4289569854736328,754128,
7,68,True,right,right,0.42629194259643555,754128,
7,69,True,right,right,0.5001740455627441,754128,
7,70,False,right,right,0.9643850326538086,754128,
7,71,True,right,right,0.4086019992828369,754128,
7,72,True,left,left,0.37163782119750977,754128,
7,73,True,right,right,0.272493839263916,754128,
7,74,False,right,left,0.5499060153961182,754128,
7,75,False,left,right,0.5039119720458984,754128,
7,76,False,left,left,0.6053280830383301,754128,
7,77,False,left,left,0.5233478546142578,754128,
7,78,False,left,left,0.5171980857849121,754128,
7,79,True,right,right,0.4100658893585205,754128,
7,80,False,left,left,0.4461669921875,754128,
7,81,False,left,left,0.43819689750671387,754128,
7,82,True,right,right,0.4227018356323242,754128,
7,83,False,left,left,0.4503200054168701,754128,
7,84,True,right,right,0.5759899616241455,754128,
7,85,True,left,left,0.5233089923858643,754128,
7,86,True,right,right,0.4057140350341797,754128,
7,87,False,right,right,0.44837188720703125,754128,
7,88,True,left,left,0.4053311347961426,754128,
7,89,True,left,left,0.40340209007263184,754128,
7,90,True,right,right,0.2769298553466797,754128,
7,91,True,left,left,0.437089204788208,754128,
7,92,True,right,right,0.4382660388946533,754128,
7,93,False,right,left,0.39566493034362793,754128,
7,94,True,left,left,0.42407703399658203,754128,
7,95,False,right,left,0.4794118404388428,754128,
7,96,True,right,right,1.0868198871612549,754128,
7,97,True,left,left,0.5075011253356934,754128,
7,98,False,left,right,0.7467010021209717,754128,
7,99,True,left,left,0.5913660526275635,754128,
8,0,True,left,left,0.5712809562683105,754128,
8,1,False,right,right,0.4709939956665039,754128,
8,2,False,left,left,0.4189019203186035,754128,
8,3,False,right,left,0.4349038600921631,754128,
8,4,True,left,left,0.3834710121154785,754128,
8,5,False,right,right,0.4191138744354248,754128,
8,6,False,right,right,0.5946919918060303,754128,
8,7,False,right,right,0.4136509895324707,754128,
8,8,True,right,right,0.298961877822876,754128,
8,9,True,right,right,1.0104169845581055,754128,
8,10,True,right,right,0.41263580322265625,754128,
8,11,True,left,left,0.4057610034942627,754128,
8,12,False,left,left,0.6470329761505127,754128,
8,13,False,left,left,0.5325479507446289,754128,
8,14,True,left,left,0.5200719833374023,754128,
8,15,False,right,right,0.540869951248169,754128,
8,16,True,left,left,0.23427295684814453,754128,
8,17,False,left,left,0.4439668655395508,754128,
8,18,True,right,right,0.4700901508331299,754128,
8,19,True,left,left,0.397705078125,754128,
8,20,True,left,left,0.3693830966949463,754128,
8,21,True,left,right,0.30556797981262207,754128,
8,22,True,right,right,0.422468900680542,754128,
8,23,False,right,right,0.5229930877685547,754128,
8,24,True,right,right,0.3708369731903076,754128,
8,25,True,right,right,0.43769001960754395,754128,
8,26,True,right,right,0.5176668167114258,754128,
8,27,True,left,left,0.6614739894866943,754128,
8,28,True,right,right,0.49143099784851074,754128,
8,29,True,left,left,0.41175103187561035,754128,
8,30,True,left,left,0.49447202682495117,754128,
8,31,False,right,right,0.6068148612976074,754128,
8,32,False,right,right,0.5357131958007812,754128,
8,33,False,right,right,0.8369061946868896,754128,
8,34,False,right,right,0.534419059753418,754128,
8,35,True,right,right,0.4334108829498291,754128,
8,36,True,left,left,0.38167309761047363,754128,
8,37,True,left,left,0.4165480136871338,754128,
8,38,True,left,left,0.38309597969055176,754128,
8,39,False,right,right,0.5222420692443848,754128,
8,40,True,left,left,0.3738219738006592,754128,
8,41,False,left,left,0.4552791118621826,754128,
8,42,False,right,left,0.3612809181213379,754128,
8,43,False,left,left,0.3720431327819824,754128,
8,44,True,left,left,0.42319297790527344,754128,
8,45,True,left,left,0.3836328983306885,754128,
8,46,True,left,left,0.40642309188842773,754128,
8,47,False,right,right,0.5456161499023438,754128,
8,48,True,left,left,0.4231381416320801,754128,
8,49,True,left,left,0.4166250228881836,754128,
8,50,False,left,left,0.42204999923706055,754128,
8,51,True,right,right,0.3482339382171631,754128,
8,52,True,left,left,0.4011721611022949,754128,
8,53,True,right,right,0.37111616134643555,754128,
8,54,True,left,left,0.35568714141845703,754128,
8,55,True,left,left,0.413301944732666,754128,
8,56,True,right,right,0.3720870018005371,754128,
8,57,True,right,left,0.3537869453430176,754128,
8,58,True,right,right,0.37685084342956543,754128,
8,59,True,right,right,0.39763784408569336,754128,
8,60,False,right,right,0.5930359363555908,754128,
8,61,True,left,left,0.38491201400756836,754128,
8,62,True,right,right,0.38463807106018066,754128,
8,63,False,left,left,0.4057159423828125,754128,
8,64,False,right,left,0.35057711601257324,754128,
8,65,True,right,right,0.4182610511779785,754128,
8,66,True,left,left,0.4170079231262207,754128,
8,67,True,right,right,0.39220285415649414,754128,
8,68,False,right,left,0.4719669818878174,754128,
8,69,False,right,left,0.43595314025878906,754128,
8,70,True,right,right,0.6660299301147461,754128,
8,71,False,right,left,0.5623970031738281,754128,
8,72,True,left,left,0.32248497009277344,754128,
8,73,True,left,left,0.4735560417175293,754128,
8,74,False,left,left,0.3900139331817627,754128,
8,75,False,left,right,0.5568649768829346,754128,
8,76,True,left,right,0.29302501678466797,754128,
8,77,True,left,left,0.3134129047393799,754128,
8,78,False,left,left,0.542802095413208,754128,
8,79,False,right,left,0.3861198425292969,754128,
8,80,False,left,left,0.4090299606323242,754128,
8,81,False,left,left,0.7577059268951416,754128,
8,82,False,left,left,0.5636048316955566,754128,
8,83,False,right,right,0.6374149322509766,754128,
8,84,False,right,right,0.5877549648284912,754128,
8,85,True,right,right,0.4248819351196289,754128,
8,86,False,right,right,0.5022108554840088,754128,
8,87,True,left,left,0.3768160343170166,754128,
8,88,False,left,left,0.5346250534057617,754128,
8,89,True,right,right,0.24374794960021973,754128,
8,90,False,right,left,0.7709641456604004,754128,
8,91,True,left,left,0.3332500457763672,754128,
8,92,False,left,left,0.7154150009155273,754128,
8,93,True,right,right,0.4337320327758789,754128,
8,94,True,right,right,0.534031867980957,754128,
8,95,False,left,left,0.6310060024261475,754128,
8,96,False,right,right,0.8025240898132324,754128,
8,97,False,left,left,0.6184520721435547,754128,
8,98,True,left,left,0.5987508296966553,754128,
8,99,False,right,right,0.6313159465789795,754128,
9,0,True,right,right,0.45219898223876953,754128,
9,1,True,left,left,0.301210880279541,754128,
9,2,True,left,left,0.3676471710205078,754128,
9,3,False,right,right,0.5761120319366455,754128,
9,4,True,left,left,0.34160804748535156,754128,
9,5,False,left,left,0.4281158447265625,754128,
9,6,True,left,right,0.33321094512939453,754128,
9,7,True,left,left,0.4105970859527588,754128,
9,8,True,right,right,0.37037110328674316,754128,
9,9,True,left,left,0.27883481979370117,754128,
9,10,False,right,right,0.5448589324951172,754128,
9,11,False,left,right,0.6667439937591553,754128,
9,12,True,left,right,0.2428760528564453,754128,
9,13,False,left,left,0.5203530788421631,754128,
9,14,False,left,left,0.4899928569793701,754128,
9,15,False,right,left,0.3824448585510254,754128,
9,16,False,right,right,0.5353600978851318,754128,
9,17,False,right,left,0.49257802963256836,754128,
9,18,True,right,right,0.38886499404907227,754128,
9,19,False,right,right,0.7596118450164795,754128,
9,20,False,right,right,0.5913209915161133,754128,
9,21,False,left,left,0.7371439933776855,754128,
9,22,True,right,right,0.35756897926330566,754128,
9,23,True,right,right,0.40622997283935547,754128,
9,24,True,left,left,0.3630859851837158,754128,
9,25,False,left,left,0.5694520473480225,754128,
9,26,True,right,right,0.33848118782043457,754128,
9,27,True,left,left,0.3980579376220703,754128,
9,28,False,right,right,0.5501089096069336,754128,
9,29,False,right,left,0.7294809818267822,754128,
9,30,True,right,right,0.46338701248168945,754128,
9,31,True,left,left,0.5045509338378906,754128,
9,32,False,right,right,0.5588929653167725,754128,
9,33,True,right,right,0.35352087020874023,754128,
9,34,True,right,right,0.33536410331726074,754128,
9,35,False,right,right,0.5833361148834229,754128,
9,36,False,right,right,0.4181511402130127,754128,
9,37,True,left,left,0.4296238422393799,754128,
9,38,False,right,left,0.926306962966919,754128,
9,39,True,left,left,1.498016119003296,754128,
9,40,False,right,right,0.5269861221313477,754128,
9,41,True,right,right,0.40481090545654297,754128,
9,42,True,left,left,0.36173486709594727,754128,
9,43,True,right,right,0.3618438243865967,754128,
9,44,False,left,left,0.48041701316833496,754128,
9,45,False,left,right,0.5176188945770264,754128,
9,46,False,right,right,0.4628939628601074,754128,
9,47,False,right,right,0.5293169021606445,754128,
9,48,False,left,right,0.4763169288635254,754128,
9,49,False,right,left,0.48358702659606934,754128,
9,50,True,left,left,0.4108879566192627,754128,
9,51,False,right,right,0.5200469493865967,754128,
9,52,True,left,left,0.3431081771850586,754128,
9,53,False,left,right,0.4496328830718994,754128,
9,54,True,left,left,0.3467521667480469,754128,
9,55,True,right,left,0.3621561527252197,754128,
9,56,True,left,left,0.4010128974914551,754128,
9,57,True,left,right,0.31447410583496094,754128,
9,58,True,left,left,0.5847060680389404,754128,
9,59,True,right,right,0.39382314682006836,754128,
9,60,True,left,left,0.37727999687194824,754128,
9,61,True,left,left,0.47673511505126953,754128,
9,62,True,right,right,0.4658041000366211,754128,
9,63,True,left,left,0.3394768238067627,754128,
9,64,False,right,right,0.6034319400787354,754128,
9,65,False,left,right,0.4648141860961914,754128,
9,66,False,right,right,0.5229709148406982,754128,
9,67,False,left,left,0.5385289192199707,754128,
9,68,False,left,left,0.798285961151123,754128,
9,69,True,right,left,0.38910508155822754,754128,
9,70,True,left,right,0.2647740840911865,754128,
9,71,True,left,left,0.3096001148223877,754128,
9,72,False,left,left,0.560542106628418,754128,
9,73,True,left,left,0.4652440547943115,754128,
9,74,False,right,right,1.2688331604003906,754128,
9,75,True,right,right,0.4182720184326172,754128,
9,76,True,right,right,0.4805760383605957,754128,
9,77,True,left,left,0.44681787490844727,754128,
9,78,False,right,right,0.6040570735931396,754128,
9,79,False,right,right,0.764890193939209,754128,
9,80,True,right,right,0.2921769618988037,754128,
9,81,False,right,right,0.5129539966583252,754128,
9,82,True,right,right,0.27284908294677734,754128,
9,83,True,right,right,0.3574850559234619,754128,
9,84,True,right,right,0.2941460609436035,754128,
9,85,False,left,left,0.8520209789276123,754128,
9,86,False,right,right,0.5214478969573975,754128,
9,87,True,right,right,0.42767810821533203,754128,
9,88,False,left,right,0.40015292167663574,754128,
9,89,True,right,right,0.45856595039367676,754128,
9,90,False,left,left,0.5477180480957031,754128,
9,91,True,left,left,0.08663010597229004,754128,
9,92,False,left,left,0.3571450710296631,754128,
9,93,False,left,left,0.7895591259002686,754128,
9,94,True,right,right,0.4650709629058838,754128,
9,95,True,left,left,0.4299459457397461,754128,
9,96,False,left,right,0.3497049808502197,754128,
9,97,False,left,left,0.40103697776794434,754128,
9,98,False,left,right,0.4895210266113281,754128,
9,99,False,right,right,0.4830141067504883,754128,
