block,trial,s1_state,direction,response,rt,pair,
0,0,True,right,left,1.1631789207458496,900778,
0,1,True,right,right,1.2405648231506348,900778,
0,2,True,left,left,0.9769082069396973,900778,
0,3,True,left,left,1.0083339214324951,900778,
0,4,True,right,left,1.1181588172912598,900778,
0,5,False,left,right,0.6230509281158447,900778,
0,6,False,left,left,0.7778699398040771,900778,
0,7,False,right,right,0.9970541000366211,900778,
0,8,True,left,right,0.9211030006408691,900778,
0,9,True,right,left,1.3286828994750977,900778,
0,10,True,left,left,0.8695991039276123,900778,
0,11,False,left,left,0.610374927520752,900778,
0,12,True,left,left,0.80010986328125,900778,
0,13,False,left,left,0.7196052074432373,900778,
0,14,False,right,left,1.1297590732574463,900778,
0,15,True,right,right,0.8188869953155518,900778,
0,16,False,right,left,1.0269529819488525,900778,
0,17,True,left,left,0.6156330108642578,900778,
0,18,False,right,right,1.3651320934295654,900778,
0,19,False,right,left,0.9924099445343018,900778,
0,20,True,right,left,0.9669959545135498,900778,
0,21,True,left,left,0.5083191394805908,900778,
0,22,True,left,left,0.5170598030090332,900778,
0,23,True,right,left,0.6661479473114014,900778,
0,24,True,right,left,0.8561029434204102,900778,
0,25,False,right,left,0.7315390110015869,900778,
0,26,True,left,left,0.862637996673584,900778,
0,27,True,left,left,0.6610848903656006,900778,
0,28,True,left,left,0.596566915512085,900778,
0,29,True,left,left,0.6056110858917236,900778,
0,30,True,left,left,0.555325984954834,900778,
0,31,False,right,left,0.7341392040252686,900778,
0,32,True,right,left,0.6913540363311768,900778,
0,33,False,left,left,0.6521749496459961,900778,
0,34,True,right,left,1.2051920890808105,900778,
0,35,True,left,left,1.20438814163208,900778,
0,36,True,left,left,0.7774040699005127,900778,
0,37,False,left,left,0.6918120384216309,900778,
0,38,True,right,left,1.3388569355010986,900778,
0,39,True,right,left,1.2243199348449707,900778,
0,40,True,left,left,1.8055219650268555,900778,
0,41,True,right,left,1.5330488681793213,900778,
0,42,False,left,left,0.8525819778442383,900778,
0,43,True,right,left,1.6903610229492188,900778,
0,44,False,right,left,0.7443931102752686,900778,
0,45,False,left,left,0.9990899562835693,900778,
0,46,False,left,left,0.5521957874298096,900778,
0,47,True,left,left,0.8770401477813721,900778,
0,48,False,right,left,0.5799510478973389,900778,
0,49,False,right,left,0.5918560028076172,900778,
0,50,False,right,left,0.4977869987487793,900778,
0,51,True,right,right,0.7957799434661865,900778,
0,52,True,left,left,1.2769927978515625,900778,
0,53,False,left,left,0.6888308525085449,900778,
0,54,True,right,right,0.7619819641113281,900778,
0,55,False,right,right,0.817101001739502,900778,
0,56,False,left,left,0.8083579540252686,900778,
0,57,False,left,left,0.6760048866271973,900778,
0,58,True,right,right,0.671917200088501,900778,
0,59,True,left,left,1.0888969898223877,900778,
0,60,False,left,left,0.5090000629425049,900778,
0,61,True,right,right,0.5794341564178467,900778,
0,62,True,right,right,0.5607960224151611,900778,
0,63,True,right,right,0.8754918575286865,900778,
0,64,True,left,right,0.9632048606872559,900778,
0,65,False,right,left,0.9666681289672852,900778,
0,66,True,left,right,0.5886409282684326,900778,
0,67,False,right,right,0.7387349605560303,900778,
0,68,True,left,left,0.7483429908752441,900778,
0,69,True,left,left,1.0172441005706787,900778,
0,70,True,left,left,0.633493185043335,900778,
0,71,False,right,right,0.6830899715423584,900778,
0,72,False,left,left,0.7107250690460205,900778,
0,73,True,right,left,0.9456357955932617,900778,
0,74,True,right,left,0.662898063659668,900778,
0,75,True,right,left,1.1084189414978027,900778,
0,76,False,left,right,0.8389599323272705,900778,
0,77,True,right,left,0.7988841533660889,900778,
0,78,False,left,left,0.6822459697723389,900778,
0,79,False,left,left,0.5587899684906006,900778,
0,80,True,right,right,1.0522160530090332,900778,
0,81,False,right,left,0.9026999473571777,900778,
0,82,False,right,right,1.1693930625915527,900778,
0,83,True,right,right,0.8654789924621582,900778,
0,84,True,right,right,0.6783089637756348,900778,
0,85,False,right,left,0.7621450424194336,900778,
0,86,True,left,left,0.6637768745422363,900778,
0,87,True,right,right,0.7748959064483643,900778,
0,88,True,left,left,0.6899700164794922,900778,
0,89,False,left,right,0.8714799880981445,900778,
0,90,False,right,right,0.7306280136108398,900778,
0,91,True,left,left,0.695620059967041,900778,
0,92,False,right,right,0.8739540576934814,900778,
0,93,False,left,right,0.7781729698181152,900778,
0,94,True,left,left,0.6629230976104736,900778,
0,95,True,left,left,0.5974671840667725,900778,
0,96,False,right,right,1.019676923751831,900778,
0,97,True,right,right,0.9482400417327881,900778,
0,98,True,left,left,0.7211570739746094,900778,
0,99,True,left,left,0.712723970413208,900778,
1,0,True,left,left,0.795698881149292,900778,
1,1,True,right,right,1.4684369564056396,900778,
1,2,True,left,left,0.5847270488739014,900778,
1,3,True,left,left,0.5978319644927979,900778,
1,4,False,right,right,0.7179219722747803,900778,
1,5,False,left,right,0.4401969909667969,900778,
1,6,True,right,right,0.6753189563751221,900778,
1,7,False,right,right,0.601201057434082,900778,
1,8,False,right,right,0.562675952911377,900778,
1,9,True,right,right,0.9133560657501221,900778,
1,10,True,right,left,0.6489419937133789,900778,
1,11,False,right,right,0.767578125,900778,
1,12,True,left,left,0.9102740287780762,900778,
1,13,False,left,left,1.1536850929260254,900778,
1,14,False,left,left,0.91286301612854,900778,
1,15,True,left,left,1.1431667804718018,900778,
1,16,False,right,right,1.0256140232086182,900778,
1,17,True,right,right,1.0269789695739746,900778,
1,18,True,left,left,0.6681041717529297,900778,
1,19,False,left,left,2.261338949203491,900778,
1,20,False,right,left,0.6955349445343018,900778,
1,21,False,right,left,0.9965488910675049,900778,
1,22,False,left,left,0.9932711124420166,900778,
1,23,False,right,left,1.5265710353851318,900778,
1,24,True,left,right,0.967353105545044,900778,
1,25,False,right,right,0.853348970413208,900778,
1,26,False,left,left,0.7614421844482422,900778,
1,27,True,left,left,1.3082799911499023,900778,
1,28,True,right,left,1.4726669788360596,900778,
1,29,True,left,left,1.0452821254730225,900778,
1,30,True,right,left,1.2868311405181885,900778,
1,31,False,left,left,1.3745448589324951,900778,
1,32,True,left,left,1.1258199214935303,900778,
1,33,False,right,right,1.5388131141662598,900778,
1,34,False,left,left,0.6505560874938965,900778,
1,35,False,left,left,0.5923559665679932,900778,
1,36,True,left,left,0.6356279850006104,900778,
1,37,True,right,right,0.7275199890136719,900778,
1,38,False,right,left,0.913032054901123,900778,
1,39,False,left,left,0.6676452159881592,900778,
1,40,True,right,right,0.8474349975585938,900778,
1,41,False,left,left,0.5386390686035156,900778,
1,42,False,right,right,1.0502779483795166,900778,
1,43,False,right,right,1.2694439888000488,900778,
1,44,True,right,left,1.1193768978118896,900778,
1,45,True,left,left,1.0700948238372803,900778,
1,46,True,right,right,1.3167610168457031,900778,
1,47,True,left,left,0.9842681884765625,900778,
1,48,False,left,left,0.8239541053771973,900778,
1,49,True,right,right,0.7602849006652832,900778,
1,50,True,right,right,0.6819701194763184,900778,
1,51,True,right,left,0.6254770755767822,900778,
1,52,True,right,left,1.3357160091400146,900778,
1,53,True,right,left,1.020141839981079,900778,
1,54,False,right,right,1.4795820713043213,900778,
1,55,False,right,right,1.260910987854004,900778,
1,56,False,left,left,1.0311610698699951,900778,
1,57,True,left,left,0.5319681167602539,900778,
1,58,False,right,right,0.7185659408569336,900778,
1,59,False,right,right,0.6617050170898438,900778,
1,60,True,left,left,0.5453109741210938,900778,
1,61,False,right,right,0.9521927833557129,900778,
1,62,True,left,left,0.5311160087585449,900778,
1,63,True,left,left,0.5517888069152832,900778,
1,64,True,left,left,0.5997421741485596,900778,
1,65,True,left,left,0.4663269519805908,900778,
1,66,True,left,left,0.487962007522583,900778,
1,67,True,right,left,0.4856760501861572,900778,
1,68,False,left,left,1.0761418342590332,900778,
1,69,True,left,left,0.696342945098877,900778,
1,70,False,right,right,1.0382418632507324,900778,
1,71,False,right,left,0.8417060375213623,900778,
1,72,False,left,left,0.8412799835205078,900778,
1,73,True,left,left,1.0940399169921875,900778,
1,74,False,left,left,1.417046070098877,900778,
1,75,False,left,left,0.8675899505615234,900778,
1,76,True,right,right,0.6323840618133545,900778,
1,77,False,left,right,1.074265956878662,900778,
1,78,False,right,right,1.143777847290039,900778,
1,79,False,right,right,1.1908318996429443,900778,
1,80,False,right,right,1.1821720600128174,900778,
1,81,False,right,right,1.0537538528442383,900778,
1,82,False,left,left,1.0938830375671387,900778,
1,83,True,left,left,1.1804649829864502,900778,
1,84,False,left,left,1.0161259174346924,900778,
1,85,False,left,left,1.0566020011901855,900778,
1,86,True,left,left,1.0509109497070312,900778,
1,87,False,right,left,1.7545788288116455,900778,
1,88,False,right,right,0.8856799602508545,900778,
1,89,False,left,left,0.7251589298248291,900778,
1,90,False,right,right,0.8965520858764648,900778,
1,91,True,right,right,1.0814259052276611,900778,
1,92,True,left,left,0.5626628398895264,900778,
1,93,False,right,right,1.3958511352539062,900778,
1,94,False,left,left,0.7660059928894043,900778,
1,95,True,right,right,0.7348558902740479,900778,
1,96,False,left,right,0.8745200634002686,900778,
1,97,True,left,left,0.7871119976043701,900778,
1,98,False,right,right,0.8721358776092529,900778,
1,99,False,right,right,1.0359249114990234,900778,
2,0,True,right,right,1.049569845199585,900778,
2,1,True,left,left,0.5797820091247559,900778,
2,2,False,left,right,0.896202802658081,900778,
2,3,True,right,right,0.6812701225280762,900778,
2,4,False,left,left,0.7109930515289307,900778,
2,5,False,right,left,0.5700550079345703,900778,
2,6,False,right,left,0.573606014251709,900778,
2,7,True,left,left,0.6363809108734131,900778,
2,8,False,right,right,1.0241889953613281,900778,
2,9,True,right,left,0.9981870651245117,900778,
2,10,False,left,left,1.0167639255523682,900778,
2,11,False,left,left,0.6509420871734619,900778,
2,12,True,right,right,0.5661618709564209,900778,
2,13,False,left,left,0.5465869903564453,900778,
2,14,False,right,right,1.1896839141845703,900778,
2,15,True,left,left,0.7085480690002441,900778,
2,16,True,right,right,0.7476539611816406,900778,
2,17,True,left,left,0.6339659690856934,900778,
2,18,True,left,left,0.7137360572814941,900778,
2,19,False,right,right,1.0048420429229736,900778,
2,20,False,left,right,0.9440689086914062,900778,
2,21,True,right,left,0.651252031326294,900778,
2,22,True,right,right,0.5239529609680176,900778,
2,23,False,left,left,0.6474099159240723,900778,
2,24,True,left,left,1.7902660369873047,900778,
2,25,True,right,left,0.4794888496398926,900778,
2,26,False,left,left,0.7350239753723145,900778,
2,27,False,right,left,0.718641996383667,900778,
2,28,True,right,left,0.5529758930206299,900778,
2,29,True,right,left,0.5535941123962402,900778,
2,30,False,right,right,0.6625661849975586,900778,
2,31,False,right,right,0.6742079257965088,900778,
2,32,False,left,left,0.7184529304504395,900778,
2,33,False,left,left,0.8924682140350342,900778,
2,34,True,left,left,0.6132349967956543,900778,
2,35,False,left,left,1.1738150119781494,900778,
2,36,False,right,left,0.7560029029846191,900778,
2,37,True,right,right,0.5479569435119629,900778,
2,38,True,right,right,0.4787020683288574,900778,
2,39,True,right,right,0.514650821685791,900778,
2,40,False,left,left,1.377277135848999,900778,
2,41,False,left,left,0.9363949298858643,900778,
2,42,True,right,left,0.938957929611206,900778,
2,43,True,left,left,0.506972074508667,900778,
2,44,True,left,left,0.07784891128540039,900778,
2,45,False,right,left,0.9920499324798584,900778,
2,46,True,left,left,0.5274920463562012,900778,
2,47,True,left,left,0.5871100425720215,900778,
2,48,False,left,left,1.1093981266021729,900778,
2,49,True,right,right,0.7479400634765625,900778,
2,50,True,left,left,0.5755231380462646,900778,
2,51,True,right,left,0.7655980587005615,900778,
2,52,False,left,left,0.865278959274292,900778,
2,53,False,right,left,0.7648911476135254,900778,
2,54,True,left,left,0.5017199516296387,900778,
2,55,True,right,right,0.933743953704834,900778,
2,56,True,right,left,0.8703241348266602,900778,
2,57,False,left,right,1.0590839385986328,900778,
2,58,False,left,left,0.8542869091033936,900778,
2,59,False,left,left,0.7723898887634277,900778,
2,60,False,right,left,1.0862619876861572,900778,
2,61,False,right,right,1.0149528980255127,900778,
2,62,True,right,left,1.0141139030456543,900778,
2,63,False,right,left,1.245668888092041,900778,
2,64,True,right,left,1.0821788311004639,900778,
2,65,True,left,left,0.6216812133789062,900778,
2,66,False,right,left,1.0810198783874512,900778,
2,67,True,left,left,0.5794169902801514,900778,
2,68,True,left,left,0.48461318016052246,900778,
2,69,True,right,right,0.7653088569641113,900778,
2,70,False,right,left,1.155367136001587,900778,
2,71,True,right,left,0.7816309928894043,900778,
2,72,False,left,right,2.049424886703491,900778,
2,73,False,left,left,0.8909380435943604,900778,
2,74,False,right,right,1.0939030647277832,900778,
2,75,True,left,left,0.529296875,900778,
2,76,True,left,left,0.24367213249206543,900778,
2,77,True,left,left,0.4106619358062744,900778,
2,78,False,right,left,0.7826910018920898,900778,
2,79,True,right,left,0.7122600078582764,900778,
2,80,True,right,left,0.578632116317749,900778,
2,81,True,left,left,0.6202270984649658,900778,
2,82,True,right,left,0.7365148067474365,900778,
2,83,True,left,left,0.643747091293335,900778,
2,84,False,right,right,0.9961919784545898,900778,
2,85,True,right,right,0.7971382141113281,900778,
2,86,True,right,left,1.0054500102996826,900778,
2,87,True,left,left,0.6316840648651123,900778,
2,88,True,right,left,0.6755690574645996,900778,
2,89,True,left,left,0.4992210865020752,900778,
2,90,False,left,right,0.8448669910430908,900778,
2,91,True,left,left,0.6648058891296387,900778,
2,92,False,left,left,0.6876790523529053,900778,
2,93,False,right,right,0.7428328990936279,900778,
2,94,True,right,left,0.5728499889373779,900778,
2,95,True,right,right,1.480875015258789,900778,
2,96,False,left,left,0.7437148094177246,900778,
2,97,False,left,left,0.6747951507568359,900778,
2,98,False,left,left,0.6930341720581055,900778,
2,99,False,left,left,0.7570140361785889,900778,
3,0,True,left,left,0.6456708908081055,900778,
3,1,False,right,right,1.3195469379425049,900778,
3,2,True,left,left,0.5578608512878418,900778,
3,3,True,left,left,0.43949317932128906,900778,
3,4,True,right,left,0.7351670265197754,900778,
3,5,False,left,left,0.6748130321502686,900778,
3,6,False,right,left,0.6445717811584473,900778,
3,7,True,right,left,0.6482040882110596,900778,
3,8,True,left,left,0.5200510025024414,900778,
3,9,False,right,left,0.6286931037902832,900778,
3,10,False,left,left,0.6588039398193359,900778,
3,11,False,right,left,0.6557521820068359,900778,
3,12,True,right,left,1.447918176651001,900778,
3,13,True,right,left,0.6299939155578613,900778,
3,14,False,left,left,0.9089109897613525,900778,
3,15,True,left,left,0.5094020366668701,900778,
3,16,True,right,right,0.6240148544311523,900778,
3,17,True,right,left,0.6805291175842285,900778,
3,18,False,left,left,0.7988250255584717,900778,
3,19,False,left,left,0.8848340511322021,900778,
3,20,False,right,left,0.6635589599609375,900778,
3,21,False,left,right,0.906317949295044,900778,
3,22,True,left,left,0.4757699966430664,900778,
3,23,False,left,left,0.5318899154663086,900778,
3,24,True,left,left,0.4983558654785156,900778,
3,25,True,left,left,0.6922709941864014,900778,
3,26,True,right,left,0.5828180313110352,900778,
3,27,False,left,left,0.762753963470459,900778,
3,28,True,right,right,0.5004560947418213,900778,
3,29,False,right,right,0.8400201797485352,900778,
3,30,False,left,left,0.6897649765014648,900778,
3,31,True,left,left,1.2235968112945557,900778,
3,32,True,left,left,0.4796891212463379,900778,
3,33,False,left,right,0.6979601383209229,900778,
3,34,True,right,left,0.8146219253540039,900778,
3,35,False,left,left,0.8295948505401611,900778,
3,36,True,right,right,0.915320873260498,900778,
3,37,True,right,right,0.781501054763794,900778,
3,38,True,right,right,0.7084667682647705,900778,
3,39,True,right,right,0.6163771152496338,900778,
3,40,False,left,right,1.0812900066375732,900778,
3,41,False,right,right,1.4055259227752686,900778,
3,42,False,left,right,1.3192589282989502,900778,
3,43,False,right,right,1.5412039756774902,900778,
3,44,True,right,left,0.5931711196899414,900778,
3,45,True,right,left,0.5968000888824463,900778,
3,46,False,left,right,1.1407809257507324,900778,
3,47,False,left,left,0.6917300224304199,900778,
3,48,False,right,right,0.7041671276092529,900778,
3,49,True,left,right,0.09607195854187012,900778,
3,50,False,right,left,1.1165249347686768,900778,
3,51,False,right,right,0.7052810192108154,900778,
3,52,False,left,left,0.7328450679779053,900778,
3,53,True,left,right,0.6448559761047363,900778,
3,54,False,right,right,1.2303950786590576,900778,
3,55,False,left,right,1.1790690422058105,900778,
3,56,True,right,right,0.6752071380615234,900778,
3,57,False,right,right,1.1260850429534912,900778,
3,58,True,left,left,0.6914849281311035,900778,
3,59,True,left,left,0.7163999080657959,900778,
3,60,False,left,left,1.1676700115203857,900778,
3,61,False,right,left,1.0230469703674316,900778,
3,62,True,left,left,0.8069291114807129,900778,
3,63,True,left,left,0.6081700325012207,900778,
3,64,False,right,left,0.9936389923095703,900778,
3,65,False,left,right,1.281836986541748,900778,
3,66,True,left,left,0.5025279521942139,900778,
3,67,True,right,left,0.5781419277191162,900778,
3,68,True,left,left,0.7211799621582031,900778,
3,69,False,left,left,0.9618849754333496,900778,
3,70,True,left,right,0.9222350120544434,900778,
3,71,True,left,left,1.115555763244629,900778,
3,72,True,right,right,0.9782910346984863,900778,
3,73,False,right,right,0.9552710056304932,900778,
3,74,False,right,right,1.1181859970092773,900778,
3,75,True,right,left,0.6245379447937012,900778,
3,76,False,left,left,0.646043062210083,900778,
3,77,True,left,left,0.49950695037841797,900778,
3,78,True,left,left,0.5080809593200684,900778,
3,79,False,left,left,1.1411361694335938,900778,
3,80,False,right,right,1.2299129962921143,900778,
3,81,False,right,right,0.7142641544342041,900778,
3,82,True,left,left,0.6096220016479492,900778,
3,83,False,right,right,0.7778258323669434,900778,
3,84,True,right,right,0.6068670749664307,900778,
3,85,True,left,left,0.6990659236907959,900778,
3,86,True,right,right,0.5639150142669678,900778,
3,87,True,right,right,0.7153899669647217,900778,
3,88,False,right,right,0.7012040615081787,900778,
3,89,True,right,right,0.650407075881958,900778,
3,90,True,left,left,0.6858091354370117,900778,
3,91,False,left,left,0.7303271293640137,900778,
3,92,False,left,left,1.060364007949829,900778,
3,93,True,right,right,0.5736141204833984,900778,
3,94,False,right,right,0.6623609066009521,900778,
3,95,False,right,right,0.7994279861450195,900778,
3,96,True,left,left,0.5058560371398926,900778,
3,97,False,right,right,0.749993085861206,900778,
3,98,True,right,left,0.45136094093322754,900778,
3,99,False,right,right,0.5733170509338379,900778,
4,0,False,right,right,1.1579060554504395,900778,
4,1,True,left,left,0.4370460510253906,900778,
4,2,True,left,left,0.4110400676727295,900778,
4,3,True,right,right,0.6547648906707764,900778,
4,4,False,right,right,0.7765190601348877,900778,
4,5,False,right,right,0.8818509578704834,900778,
4,6,True,right,left,0.44496703147888184,900778,
4,7,False,left,left,0.5624361038208008,900778,
4,8,True,right,right,0.5575430393218994,900778,
4,9,True,left,left,0.42021608352661133,900778,
4,10,True,left,right,0.08786797523498535,900778,
4,11,False,right,right,0.7907688617706299,900778,
4,12,True,right,right,0.607105016708374,900778,
4,13,True,right,right,0.8157000541687012,900778,
4,14,False,right,right,0.8692388534545898,900778,
4,15,True,right,right,0.598228931427002,900778,
4,16,True,left,left,0.5447368621826172,900778,
4,17,False,left,right,0.6731340885162354,900778,
4,18,False,left,right,0.6435630321502686,900778,
4,19,False,left,right,0.662013053894043,900778,
4,20,False,right,right,0.6536009311676025,900778,
4,21,False,left,right,0.5026040077209473,900778,
4,22,False,right,right,0.7077429294586182,900778,
4,23,True,right,left,0.7210099697113037,900778,
4,24,False,right,right,1.275691032409668,900778,
4,25,True,left,left,0.5205938816070557,900778,
4,26,False,right,right,0.8006370067596436,900778,
4,27,False,right,right,0.6441528797149658,900778,
4,28,True,right,left,0.9858920574188232,900778,
4,29,True,left,left,0.5971088409423828,900778,
4,30,False,left,left,1.0880060195922852,900778,
4,31,False,left,left,0.49832892417907715,900778,
4,32,True,left,left,0.7130990028381348,900778,
4,33,True,left,left,0.42004895210266113,900778,
4,34,True,right,right,0.5806360244750977,900778,
4,35,True,right,left,1.2503349781036377,900778,
4,36,False,left,left,0.775933027267456,900778,
4,37,True,right,right,0.6114449501037598,900778,
4,38,False,left,left,0.657912015914917,900778,
4,39,False,left,left,0.5245330333709717,900778,
4,40,True,right,right,0.552264928817749,900778,
4,41,True,left,left,0.43480801582336426,900778,
4,42,True,right,right,0.4929070472717285,900778,
4,43,True,right,left,0.6733260154724121,900778,
4,44,False,left,left,0.590277910232544,900778,
4,45,False,right,left,0.616412878036499,900778,
4,46,True,left,left,0.512700080871582,900778,
4,47,False,right,right,0.9862360954284668,900778,
4,48,False,left,left,0.8737711906433105,900778,
4,49,True,left,left,0.5538301467895508,900778,
4,50,False,left,left,0.6508350372314453,900778,
4,51,True,right,right,0.728010892868042,900778,
4,52,True,right,left,0.6330320835113525,900778,
4,53,True,right,left,0.7319180965423584,900778,
4,54,False,right,right,0.937669038772583,900778,
4,55,False,left,right,0.7147879600524902,900778,
4,56,False,left,left,0.7001659870147705,900778,
4,57,True,left,left,0.5180649757385254,900778,
4,58,False,right,left,0.636591911315918,900778,
4,59,False,left,left,0.5702950954437256,900778,
4,60,False,left,left,0.7509431838989258,900778,
4,61,False,left,left,0.48203301429748535,900778,
4,62,True,left,left,0.6242978572845459,900778,
4,63,True,right,left,0.7386701107025146,900778,
4,64,False,left,left,0.7553389072418213,900778,
4,65,True,left,left,0.8597760200500488,900778,
4,66,True,right,right,0.7023530006408691,900778,
4,67,True,right,right,0.6952290534973145,900778,
4,68,True,left,right,0.7494430541992188,900778,
4,69,True,left,right,0.7361550331115723,900778,
4,70,True,left,right,1.0393850803375244,900778,
4,71,False,left,left,0.8120510578155518,900778,
4,72,True,left,right,1.1301162242889404,900778,
4,73,True,left,right,0.8867669105529785,900778,
4,74,True,left,left,0.8489551544189453,900778,
4,75,False,left,left,1.0196940898895264,900778,
4,76,False,right,left,0.6030550003051758,900778,
4,77,True,left,left,1.1989150047302246,900778,
4,78,False,left,left,0.5564432144165039,900778,
4,79,True,right,right,0.5358760356903076,900778,
4,80,True,left,right,0.6638460159301758,900778,
4,81,False,right,left,0.6126539707183838,900778,
4,82,True,right,right,0.9106910228729248,900778,
4,83,True,left,right,0.6366488933563232,900778,
4,84,True,left,right,0.8790280818939209,900778,
4,85,False,right,left,0.7052597999572754,900778,
4,86,False,right,right,0.7551507949829102,900778,
4,87,True,left,right,0.9271669387817383,900778,
4,88,False,right,right,0.6923041343688965,900778,
4,89,False,right,right,0.6742517948150635,900778,
4,90,False,right,right,0.6743218898773193,900778,
4,91,False,right,right,0.6445431709289551,900778,
4,92,False,right,right,0.5519800186157227,900778,
4,93,True,left,right,1.006199836730957,900778,
4,94,True,left,right,0.9913070201873779,900778,
4,95,True,right,right,1.0928189754486084,900778,
4,96,True,right,right,0.8723220825195312,900778,
4,97,True,right,right,0.6500780582427979,900778,
4,98,False,right,right,0.888016939163208,900778,
4,99,True,right,right,0.857572078704834,900778,
5,0,True,left,right,0.7536509037017822,900778,
5,1,True,left,right,0.7951960563659668,900778,
5,2,False,right,right,0.6420831680297852,900778,
5,3,False,left,right,0.8545010089874268,900778,
5,4,False,right,right,0.6482319831848145,900778,
5,5,True,left,right,0.7127060890197754,900778,
5,6,False,left,left,0.5552690029144287,900778,
5,7,False,right,right,0.6991379261016846,900778,
5,8,True,right,left,0.901123046875,900778,
5,9,True,left,left,0.7051429748535156,900778,
5,10,True,right,left,0.8530371189117432,900778,
5,11,False,left,right,0.5330259799957275,900778,
5,12,True,right,left,0.9889228343963623,900778,
5,13,True,right,right,1.2648370265960693,900778,
5,14,True,left,right,0.8402979373931885,900778,
5,15,False,right,right,0.7290680408477783,900778,
5,16,True,right,right,0.5540058612823486,900778,
5,17,True,right,right,0.555427074432373,900778,
5,18,True,left,left,0.6924951076507568,900778,
5,19,False,left,left,1.0901761054992676,900778,
5,20,True,left,left,0.5779759883880615,900778,
5,21,False,right,right,0.6624782085418701,900778,
5,22,True,left,left,0.5267598628997803,900778,
5,23,False,left,left,0.7371311187744141,900778,
5,24,False,right,right,0.9783980846405029,900778,
5,25,False,left,right,0.9233958721160889,900778,
5,26,False,left,right,1.299232006072998,900778,
5,27,True,right,right,0.5211441516876221,900778,
5,28,False,right,right,1.1180419921875,900778,
5,29,True,right,right,0.9415228366851807,900778,
5,30,True,left,right,0.628633975982666,900778,
5,31,False,right,right,0.9172670841217041,900778,
5,32,False,left,left,0.9235930442810059,900778,
5,33,False,left,left,0.7474460601806641,900778,
5,34,False,left,right,0.8746721744537354,900778,
5,35,False,left,left,1.1463799476623535,900778,
5,36,False,right,right,0.6947009563446045,900778,
5,37,True,right,left,0.8109791278839111,900778,
5,38,True,right,right,0.445206880569458,900778,
5,39,False,left,left,1.1974010467529297,900778,
5,40,False,right,right,0.9305319786071777,900778,
5,41,False,right,left,0.9871480464935303,900778,
5,42,True,left,left,0.47542309761047363,900778,
5,43,True,left,left,0.4499931335449219,900778,
5,44,True,right,left,0.42984986305236816,900778,
5,45,True,left,left,0.46622204780578613,900778,
5,46,True,right,left,0.38254594802856445,900778,
5,47,False,right,right,0.8492839336395264,900778,
5,48,True,left,left,0.5030379295349121,900778,
5,49,False,right,right,0.913301944732666,900778,
5,50,True,left,left,0.5160329341888428,900778,
5,51,True,left,left,0.5270471572875977,900778,
5,52,True,right,left,0.898306131362915,900778,
5,53,True,right,right,1.1499171257019043,900778,
5,54,False,right,right,1.3370530605316162,900778,
5,55,False,right,right,0.5702810287475586,900778,
5,56,False,left,left,0.8854808807373047,900778,
5,57,False,left,left,0.6049489974975586,900778,
5,58,False,right,right,0.6589648723602295,900778,
5,59,False,left,left,0.9191818237304688,900778,
5,60,False,left,right,0.6547091007232666,900778,
5,61,False,right,right,0.618276834487915,900778,
5,62,True,right,left,0.681204080581665,900778,
5,63,True,right,right,0.7609078884124756,900778,
5,64,True,left,left,0.5388679504394531,900778,
5,65,False,left,right,1.8653109073638916,900778,
5,66,True,right,right,0.5996260643005371,900778,
5,67,True,right,right,0.4927811622619629,900778,
5,68,False,right,right,0.811790943145752,900778,
5,69,True,left,left,0.5174520015716553,900778,
5,70,True,left,left,0.6143500804901123,900778,
5,71,False,left,left,0.6528799533843994,900778,
5,72,True,right,right,0.6395118236541748,900778,
5,73,False,left,left,0.5862078666687012,900778,
5,74,True,left,left,0.4227621555328369,900778,
5,75,True,right,right,0.5602631568908691,900778,
5,76,True,right,right,0.3517589569091797,900778,
5,77,False,left,left,1.0550079345703125,900778,
5,78,True,left,left,0.889042854309082,900778,
5,79,True,left,right,0.3993828296661377,900778,
5,80,True,right,right,0.6678609848022461,900778,
5,81,True,right,right,0.41361308097839355,900778,
5,82,True,left,left,0.5670301914215088,900778,
5,83,True,left,left,0.438352108001709,900778,
5,84,True,right,right,0.45935678482055664,900778,
5,85,True,right,right,0.4602069854736328,900778,
5,86,False,left,right,1.0394201278686523,900778,
5,87,False,right,right,1.1609711647033691,900778,
5,88,True,left,left,0.4116089344024658,900778,
5,89,False,left,left,1.0226140022277832,900778,
5,90,True,right,right,0.3959081172943115,900778,
5,91,True,right,right,0.5207920074462891,900778,
5,92,False,left,left,0.7363631725311279,900778,
5,93,True,right,right,0.4453239440917969,900778,
5,94,True,right,right,0.3614678382873535,900778,
5,95,False,right,left,1.0960969924926758,900778,
5,96,True,left,left,0.4677281379699707,900778,
5,97,True,right,right,0.7024061679840088,900778,
5,98,True,left,left,0.41733384132385254,900778,
5,99,False,left,left,0.7632958889007568,900778,
6,0,False,left,left,0.79703688621521,900778,
6,1,False,left,left,0.5360829830169678,900778,
6,2,True,right,right,0.4723529815673828,900778,
6,3,False,left,right,0.8852510452270508,900778,
6,4,True,left,left,0.6582839488983154,900778,
6,5,False,left,left,0.9347238540649414,900778,
6,6,False,left,left,0.558866024017334,900778,
6,7,True,right,right,0.5229790210723877,900778,
6,8,False,right,right,0.5529499053955078,900778,
6,9,True,left,left,0.4882478713989258,900778,
6,10,False,right,left,0.7312791347503662,900778,
6,11,False,left,left,0.6651580333709717,900778,
6,12,True,right,right,0.42810606956481934,900778,
6,13,True,left,left,2.102426052093506,900778,
6,14,True,left,left,0.646467924118042,900778,
6,15,True,left,left,0.3870251178741455,900778,
6,16,False,left,right,1.0246338844299316,900778,
6,17,True,left,right,0.6801669597625732,900778,
6,18,False,left,left,0.9137630462646484,900778,
6,19,True,right,right,0.48583006858825684,900778,
6,20,False,left,left,0.5745470523834229,900778,
6,21,False,right,left,0.7831060886383057,900778,
6,22,False,right,left,1.0624620914459229,900778,
6,23,False,right,right,0.8980560302734375,900778,
6,24,False,right,left,1.0720489025115967,900778,
6,25,True,right,right,0.39603614807128906,900778,
6,26,False,left,right,0.8196139335632324,900778,
6,27,False,right,right,0.9841060638427734,900778,
6,28,True,left,left,0.36453700065612793,900778,
6,29,False,left,left,0.6592040061950684,900778,
6,30,False,left,left,0.6317141056060791,900778,
6,31,False,right,left,0.669407844543457,900778,
6,32,True,right,right,0.5035169124603271,900778,
6,33,True,left,left,0.4525020122528076,900778,
6,34,True,left,left,0.48647403717041016,900778,
6,35,True,right,right,0.5166342258453369,900778,
6,36,True,left,left,0.5027210712432861,900778,
6,37,False,right,right,0.7990479469299316,900778,
6,38,True,left,left,0.5785260200500488,900778,
6,39,False,right,right,0.6820628643035889,900778,
6,40,True,left,left,0.46811914443969727,900778,
6,41,True,right,right,0.5010020732879639,900778,
6,42,True,left,left,0.5794570446014404,900778,
6,43,True,left,left,0.4861319065093994,900778,
6,44,True,right,right,0.5669119358062744,900778,
6,45,True,left,left,0.48893308639526367,900778,
6,46,False,left,left,1.1172940731048584,900778,
6,47,True,left,right,0.6905820369720459,900778,
6,48,False,right,right,0.6044650077819824,900778,
6,49,True,right,left,0.5954420566558838,900778,
6,50,True,left,left,0.5656261444091797,900778,
6,51,False,right,left,0.674036979675293,900778,
6,52,False,left,left,0.8010599613189697,900778,
6,53,True,right,right,0.5237040519714355,900778,
6,54,True,right,right,0.5280420780181885,900778,
6,55,True,right,left,0.4998290538787842,900778,
6,56,False,right,right,0.6822669506072998,900778,
6,57,True,left,right,0.6342189311981201,900778,
6,58,True,right,right,0.558474063873291,900778,
6,59,False,right,right,0.6521041393280029,900778,
6,60,False,left,left,0.5726220607757568,900778,
6,61,True,right,right,0.3977639675140381,900778,
6,62,False,left,left,0.5692150592803955,900778,
6,63,False,left,left,0.5235769748687744,900778,
6,64,False,right,right,0.6864988803863525,900778,
6,65,True,left,left,0.481827974319458,900778,
6,66,False,left,left,0.4979228973388672,900778,
6,67,True,left,left,0.5211460590362549,900778,
6,68,False,left,left,0.5966348648071289,900778,
6,69,True,left,left,0.5942361354827881,900778,
6,70,True,left,left,0.4041290283203125,900778,
6,71,True,left,left,0.46570491790771484,900778,
6,72,True,right,left,0.40847182273864746,900778,
6,73,False,right,right,0.8484430313110352,900778,
6,74,True,right,left,1.4820270538330078,900778,
6,75,False,right,right,0.5799300670623779,900778,
6,76,True,right,right,0.4547550678253174,900778,
6,77,False,right,right,0.7109060287475586,900778,
6,78,True,left,left,0.5404918193817139,900778,
6,79,True,right,left,0.7047238349914551,900778,
6,80,False,right,right,0.959028959274292,900778,
6,81,True,right,right,0.629586935043335,900778,
6,82,False,right,right,0.9373700618743896,900778,
6,83,True,left,left,0.5743410587310791,900778,
6,84,False,right,right,0.4760899543762207,900778,
6,85,True,left,left,0.4181981086730957,900778,
6,86,True,right,right,0.7118299007415771,900778,
6,87,True,left,left,0.5197880268096924,900778,
6,88,True,left,left,0.6502251625061035,900778,
6,89,True,right,left,0.4304990768432617,900778,
6,90,True,right,left,0.607947826385498,900778,
6,91,False,left,left,0.8115200996398926,900778,
6,92,False,left,left,0.5245308876037598,900778,
6,93,False,left,left,0.4621620178222656,900778,
6,94,True,right,left,0.6432502269744873,900778,
6,95,False,right,right,1.2733099460601807,900778,
6,96,True,right,right,0.5758929252624512,900778,
6,97,True,right,right,0.6544320583343506,900778,
6,98,False,right,right,0.5934810638427734,900778,
6,99,True,right,right,0.46556806564331055,900778,
7,0,False,left,left,0.775083065032959,900778,
7,1,False,right,left,0.7545599937438965,900778,
7,2,False,right,right,0.503399133682251,900778,
7,3,False,right,right,0.5657820701599121,900778,
7,4,True,left,left,0.6171889305114746,900778,
7,5,True,left,right,0.6421730518341064,900778,
7,6,False,right,right,0.598578929901123,900778,
7,7,True,right,left,0.6867949962615967,900778,
7,8,False,left,left,0.7974340915679932,900778,
7,9,False,right,left,0.5388870239257812,900778,
7,10,False,right,left,0.4930129051208496,900778,
7,11,True,right,right,0.6393687725067139,900778,
7,12,True,right,right,0.6210498809814453,900778,
7,13,False,left,left,0.47363781929016113,900778,
7,14,True,right,right,0.6858329772949219,900778,
7,15,False,left,right,0.9210729598999023,900778,
7,16,True,left,left,0.6346211433410645,900778,
7,17,False,left,left,0.4819941520690918,900778,
7,18,False,right,left,0.44437408447265625,900778,
7,19,True,right,right,0.6494410037994385,900778,
7,20,True,right,right,0.4519839286804199,900778,
7,21,False,left,left,0.4879729747772217,900778,
7,22,True,left,right,0.5182828903198242,900778,
7,23,True,left,right,0.6457109451293945,900778,
7,24,True,left,left,0.5090160369873047,900778,
7,25,True,right,left,1.7685320377349854,900778,
7,26,False,left,right,0.8138079643249512,900778,
7,27,True,left,right,0.6581380367279053,900778,
7,28,False,left,left,0.619114875793457,900778,
7,29,False,right,left,0.738663911819458,900778,
7,30,True,left,left,0.5930931568145752,900778,
7,31,False,left,left,0.6398251056671143,900778,
7,32,True,right,right,0.6940419673919678,900778,
7,33,False,left,right,1.3333470821380615,900778,
7,34,False,left,right,0.8268539905548096,900778,
7,35,False,left,left,1.0200090408325195,900778,
7,36,True,right,right,0.5433940887451172,900778,
7,37,False,left,left,0.8584280014038086,900778,
7,38,True,right,right,0.6619939804077148,900778,
7,39,True,left,right,0.35320281982421875,900778,
7,40,True,right,right,0.5731308460235596,900778,
7,41,False,left,left,1.4312169551849365,900778,
7,42,True,left,right,0.601395845413208,900778,
7,43,True,right,right,0.586799144744873,900778,
7,44,True,right,right,0.6072700023651123,900778,
7,45,True,left,right,0.6261990070343018,900778,
7,46,True,right,right,0.8834080696105957,900778,
7,47,True,right,right,0.7084639072418213,900778,
7,48,False,left,left,0.9917030334472656,900778,
7,49,False,right,left,1.009619951248169,900778,
7,50,True,left,left,1.0547361373901367,900778,
7,51,True,left,right,0.9484961032867432,900778,
7,52,True,left,right,1.2054779529571533,900778,
7,53,True,right,left,1.0358171463012695,900778,
7,54,False,left,left,0.6521000862121582,900778,
7,55,True,right,left,0.694713830947876,900778,
7,56,False,right,right,0.7908060550689697,900778,
7,57,False,right,right,0.9243018627166748,900778,
7,58,False,left,right,1.010632038116455,900778,
7,59,False,left,left,0.7980201244354248,900778,
7,60,False,right,left,0.9688060283660889,900778,
7,61,False,left,right,0.512660026550293,900778,
7,62,True,left,left,0.4833190441131592,900778,
7,63,True,left,left,0.6208920478820801,900778,
7,64,True,right,right,0.7931649684906006,900778,
7,65,True,left,left,0.5025289058685303,900778,
7,66,False,right,right,0.7855539321899414,900778,
7,67,False,left,right,1.0790610313415527,900778,
7,68,True,right,left,0.7405109405517578,900778,
7,69,True,right,left,0.6600589752197266,900778,
7,70,True,right,left,0.5182590484619141,900778,
7,71,True,left,right,0.8797340393066406,900778,
7,72,False,left,left,0.6698200702667236,900778,
7,73,True,left,left,0.5346319675445557,900778,
7,74,False,right,right,0.5596020221710205,900778,
7,75,True,right,right,0.45119810104370117,900778,
7,76,False,left,right,1.0669081211090088,900778,
7,77,True,right,left,0.7029571533203125,900778,
7,78,True,right,right,0.5508270263671875,900778,
7,79,False,left,left,0.9244208335876465,900778,
7,80,True,right,left,0.88307785987854,900778,
7,81,False,right,right,0.6865899562835693,900778,
7,82,False,right,right,0.7481279373168945,900778,
7,83,True,left,right,0.592616081237793,900778,
7,84,False,right,left,1.2229020595550537,900778,
7,85,False,left,left,0.7048599720001221,900778,
7,86,False,right,right,0.7086210250854492,900778,
7,87,True,right,right,0.808506965637207,900778,
7,88,False,left,left,0.9279911518096924,900778,
7,89,False,right,right,0.9070899486541748,900778,
7,90,True,left,left,0.8418529033660889,900778,
7,91,True,right,left,0.922356128692627,900778,
7,92,False,right,right,0.685981035232544,900778,
7,93,False,left,left,0.8313748836517334,900778,
7,94,True,left,left,0.8222429752349854,900778,
7,95,True,right,right,0.9076411724090576,900778,
7,96,False,right,right,0.7614879608154297,900778,
7,97,True,left,left,0.7364668846130371,900778,
7,98,False,right,right,0.5520679950714111,900778,
7,99,False,left,left,0.7294511795043945,900778,
8,0,True,left,right,0.8427700996398926,900778,
8,1,False,right,right,0.8089048862457275,900778,
8,2,False,right,right,0.6155788898468018,900778,
8,3,False,left,left,0.6209659576416016,900778,
8,4,False,left,left,0.4503059387207031,900778,
8,5,True,right,right,0.5474989414215088,900778,
8,6,False,right,left,0.7251980304718018,900778,
8,7,False,left,left,0.6839220523834229,900778,
8,8,True,right,left,0.9548628330230713,900778,
8,9,True,left,left,0.4567549228668213,900778,
8,10,True,left,left,0.7376949787139893,900778,
8,11,True,left,left,0.37792205810546875,900778,
8,12,False,left,right,0.6745338439941406,900778,
8,13,False,right,right,0.894780158996582,900778,
8,14,True,right,right,0.9632761478424072,900778,
8,15,False,left,left,0.5919971466064453,900778,
8,16,False,left,left,0.4243779182434082,900778,
8,17,True,right,left,0.712805986404419,900778,
8,18,True,right,left,0.636444091796875,900778,
8,19,True,right,left,0.6604440212249756,900778,
8,20,True,right,left,0.6211869716644287,900778,
8,21,False,left,left,0.608853816986084,900778,
8,22,False,right,right,0.6671218872070312,900778,
8,23,True,left,right,1.1226351261138916,900778,
8,24,True,right,right,0.7301840782165527,900778,
8,25,False,left,left,0.6346690654754639,900778,
8,26,True,right,right,0.7262880802154541,900778,
8,27,True,right,right,0.7013890743255615,900778,
8,28,True,right,right,0.7643218040466309,900778,
8,29,False,left,left,0.5386559963226318,900778,
8,30,False,right,left,0.46939587593078613,900778,
8,31,True,left,left,0.741400957107544,900778,
8,32,False,left,left,0.6559851169586182,900778,
8,33,False,left,left,0.45392298698425293,900778,
8,34,True,right,left,0.7115099430084229,900778,
8,35,True,left,left,1.0022070407867432,900778,
8,36,False,right,right,0.71840500831604,900778,
8,37,False,left,left,0.7205309867858887,900778,
8,38,True,right,left,0.6630408763885498,900778,
8,39,False,right,left,0.7189300060272217,900778,
8,40,True,left,left,0.653519868850708,900778,
8,41,False,left,left,0.57293701171875,900778,
8,42,False,left,left,0.5633080005645752,900778,
8,43,False,left,left,0.4523959159851074,900778,
8,44,True,right,left,0.764523983001709,900778,
8,45,False,right,right,1.103269100189209,900778,
8,46,True,right,left,0.876323938369751,900778,
8,47,True,right,left,0.7144739627838135,900778,
8,48,False,left,left,1.1696228981018066,900778,
8,49,True,left,left,0.47626805305480957,900778,
8,50,True,right,left,0.5642619132995605,900778,
8,51,True,right,left,0.773339033126831,900778,
8,52,True,right,right,0.9189431667327881,900778,
8,53,False,right,right,1.156383991241455,900778,
8,54,True,right,left,0.776421070098877,900778,
8,55,False,left,left,0.5327370166778564,900778,
8,56,False,right,right,0.7319889068603516,900778,
8,57,True,left,right,0.7720928192138672,900778,
8,58,True,right,right,0.9391288757324219,900778,
8,59,True,left,right,0.634376049041748,900778,
8,60,True,right,left,0.2675771713256836,900778,
8,61,False,right,right,0.9390051364898682,900778,
8,62,True,left,left,1.202502965927124,900778,
8,63,True,right,left,1.091871976852417,900778,
8,64,True,right,right,1.8263728618621826,900778,
8,65,True,right,right,0.5301289558410645,900778,
8,66,False,left,left,0.5824220180511475,900778,
8,67,False,left,left,0.6238329410552979,900778,
8,68,True,left,left,0.5924139022827148,900778,
8,69,False,right,left,0.9075601100921631,900778,
8,70,False,left,left,1.359354019165039,900778,
8,71,True,right,right,0.6398770809173584,900778,
8,72,False,left,left,0.684053897857666,900778,
8,73,True,left,right,0.6641781330108643,900778,
8,74,False,left,right,0.777338981628418,900778,
8,75,False,left,left,0.9543039798736572,900778,
8,76,True,right,left,1.1646199226379395,900778,
8,77,False,right,left,1.0160510540008545,900778,
8,78,True,left,left,0.8085429668426514,900778,
8,79,True,right,left,0.7442560195922852,900778,
8,80,False,right,right,0.4412989616394043,900778,
8,81,False,right,right,0.6325809955596924,900778,
8,82,True,left,right,0.8757870197296143,900778,
8,83,False,right,right,0.5963690280914307,900778,
8,84,False,left,left,0.5768640041351318,900778,
8,85,False,right,right,1.0971169471740723,900778,
8,86,True,right,left,1.0123558044433594,900778,
8,87,True,right,right,0.9372141361236572,900778,
8,88,True,left,left,1.1451900005340576,900778,
8,89,True,left,left,0.7603549957275391,900778,
8,90,True,right,right,0.8207190036773682,900778,
8,91,False,left,left,0.7553508281707764,900778,
8,92,False,left,left,0.6547820568084717,900778,
8,93,True,left,left,0.7444300651550293,900778,
8,94,True,left,left,0.6897561550140381,900778,
8,95,False,right,left,0.5521538257598877,900778,
8,96,True,left,left,0.6479060649871826,900778,
8,97,True,left,left,0.5661361217498779,900778,
8,98,True,left,left,0.7439351081848145,900778,
8,99,False,left,left,0.5193378925323486,900778,
9,0,False,right,right,1.0938949584960938,900778,
9,1,True,right,right,0.7086360454559326,900778,
9,2,False,left,left,0.5418300628662109,900778,
9,3,True,right,right,0.5780909061431885,900778,
9,4,False,left,left,0.4764108657836914,900778,
9,5,True,right,left,1.009458065032959,900778,
9,6,False,right,right,1.10304594039917,900778,
9,7,True,left,left,0.6491701602935791,900778,
9,8,True,left,left,0.5993430614471436,900778,
9,9,True,left,left,0.5123429298400879,900778,
9,10,True,right,left,0.5904698371887207,900778,
9,11,False,left,left,0.6365971565246582,900778,
9,12,False,right,left,0.6437580585479736,900778,
9,13,False,right,right,0.6064939498901367,900778,
9,14,True,left,left,0.6224660873413086,900778,
9,15,True,left,left,0.6988568305969238,900778,
9,16,True,left,left,0.6975979804992676,900778,
9,17,False,right,right,0.5218291282653809,900778,
9,18,False,left,right,0.658505916595459,900778,
9,19,False,right,right,0.5288310050964355,900778,
9,20,False,right,right,0.7165679931640625,900778,
9,21,False,left,left,0.7054181098937988,900778,
9,22,False,left,left,0.5275671482086182,900778,
9,23,True,right,right,0.8157510757446289,900778,
9,24,True,right,right,1.0459270477294922,900778,
9,25,False,right,right,0.6453890800476074,900778,
9,26,True,right,right,0.6089131832122803,900778,
9,27,True,right,right,0.6775100231170654,900778,
9,28,False,left,left,0.49296998977661133,900778,
9,29,False,right,right,0.6252579689025879,900778,
9,30,False,left,left,0.7011699676513672,900778,
9,31,True,right,left,1.0055840015411377,900778,
9,32,True,right,left,0.8593378067016602,900778,
9,33,False,right,right,0.526008129119873,900778,
9,34,True,left,left,0.8805980682373047,900778,
9,35,False,right,right,0.5321810245513916,900778,
9,36,False,right,right,0.7412190437316895,900778,
9,37,False,left,left,0.8569080829620361,900778,
9,38,True,right,right,0.8102829456329346,900778,
9,39,False,left,left,0.7456600666046143,900778,
9,40,False,left,left,0.5128951072692871,900778,
9,41,True,left,left,0.8276350498199463,900778,
9,42,True,left,left,0.740556001663208,900778,
9,43,True,left,left,0.6003649234771729,900778,
9,44,True,right,left,0.8736300468444824,900778,
9,45,False,left,left,0.7738189697265625,900778,
9,46,False,right,right,0.827362060546875,900778,
9,47,False,left,left,0.4597649574279785,900778,
9,48,True,left,left,0.7901480197906494,900778,
9,49,False,left,left,0.5252981185913086,900778,
9,50,True,left,right,0.6801819801330566,900778,
9,51,False,right,right,0.82682204246521,900778,
9,52,True,left,left,1.069046974182129,900778,
9,53,False,left,left,0.5123860836029053,900778,
9,54,True,right,right,1.0083019733428955,900778,
9,55,True,right,right,0.8751220703125,900778,
9,56,True,left,right,0.6608619689941406,900778,
9,57,False,right,right,0.8449828624725342,900778,
9,58,False,right,right,0.5760598182678223,900778,
9,59,False,right,right,0.512808084487915,900778,
9,60,True,left,left,0.6529879570007324,900778,
9,61,True,right,left,0.7070579528808594,900778,
9,62,False,left,left,0.5183730125427246,900778,
9,63,True,right,right,0.6480350494384766,900778,
9,64,False,right,right,0.5512499809265137,900778,
9,65,False,right,right,0.5238220691680908,900778,
9,66,False,left,right,0.611663818359375,900778,
9,67,True,right,left,0.5992231369018555,900778,
9,68,False,right,right,0.949199914932251,900778,
9,69,False,left,left,0.7848079204559326,900778,
9,70,True,right,right,0.547374963760376,900778,
9,71,True,right,right,0.5081450939178467,900778,
9,72,False,right,right,0.5656261444091797,900778,
9,73,True,left,left,0.7067999839782715,900778,
9,74,True,left,right,1.053891897201538,900778,
9,75,False,left,left,0.8561670780181885,900778,
9,76,True,right,left,0.4770820140838623,900778,
9,77,True,right,left,0.5977680683135986,900778,
9,78,True,left,left,0.45809006690979004,900778,
9,79,True,right,left,0.5266261100769043,900778,
9,80,True,right,left,0.4530808925628662,900778,
9,81,True,right,left,0.7787818908691406,900778,
9,82,True,left,left,0.8608949184417725,900778,
9,83,True,left,left,0.7619919776916504,900778,
9,84,False,left,left,0.6004362106323242,900778,
9,85,True,left,left,0.772611141204834,900778,
9,86,True,left,left,0.957313060760498,900778,
9,87,True,left,left,0.9980261325836182,900778,
9,88,False,right,right,1.5323419570922852,900778,
9,89,True,right,left,1.6582129001617432,900778,
9,90,True,left,left,0.6613101959228516,900778,
9,91,False,left,left,0.6022689342498779,900778,
9,92,False,left,left,0.4186561107635498,900778,
9,93,False,right,left,0.4430849552154541,900778,
9,94,False,left,left,0.6815958023071289,900778,
9,95,False,right,right,0.7348308563232422,900778,
9,96,True,right,left,0.9694581031799316,900778,
9,97,False,left,left,0.5622761249542236,900778,
9,98,False,left,left,0.5905969142913818,900778,
9,99,True,left,left,0.601154088973999,900778,
