block,trial,s1_state,direction,response,rt,pair,
0,0,False,right,right,1.2530930042266846,958733,
0,1,True,right,right,0.6528511047363281,958733,
0,2,False,right,right,0.5068759918212891,958733,
0,3,True,left,left,0.43904805183410645,958733,
0,4,True,right,right,0.5989789962768555,958733,
0,5,True,left,right,0.6941661834716797,958733,
0,6,False,right,right,0.6296560764312744,958733,
0,7,False,right,right,0.6883950233459473,958733,
0,8,False,left,right,0.6834521293640137,958733,
0,9,False,left,right,0.6213541030883789,958733,
0,10,True,right,left,0.7413201332092285,958733,
0,11,False,left,right,0.8334319591522217,958733,
0,12,False,left,right,1.128066062927246,958733,
0,13,False,right,right,0.9018700122833252,958733,
0,14,False,right,right,0.7189879417419434,958733,
0,15,False,left,left,0.9499101638793945,958733,
0,16,False,left,left,0.9576189517974854,958733,
0,17,True,right,right,0.6151289939880371,958733,
0,18,False,left,left,0.9103131294250488,958733,
0,19,True,right,right,0.6021468639373779,958733,
0,20,False,left,left,1.099881887435913,958733,
0,21,True,right,right,0.5149691104888916,958733,
0,22,True,left,right,0.8934860229492188,958733,
0,23,False,right,right,0.6104230880737305,958733,
0,24,True,left,left,0.7364768981933594,958733,
0,25,True,right,right,0.790930986404419,958733,
0,26,False,left,left,0.9408178329467773,958733,
0,27,True,left,right,0.457348108291626,958733,
0,28,False,left,left,0.8038320541381836,958733,
0,29,False,right,right,1.15739107131958,958733,
0,30,False,right,left,1.0053818225860596,958733,
0,31,True,left,right,0.3272261619567871,958733,
0,32,False,right,left,1.0577480792999268,958733,
0,33,False,right,right,1.1311869621276855,958733,
0,34,False,right,right,1.3851890563964844,958733,
0,35,False,left,left,1.040252923965454,958733,
0,36,True,left,right,0.5731689929962158,958733,
0,37,False,right,left,0.9613199234008789,958733,
0,38,True,right,right,0.6808340549468994,958733,
0,39,False,right,right,1.2621369361877441,958733,
0,40,True,left,left,0.728233814239502,958733,
0,41,True,right,right,0.6337628364562988,958733,
0,42,True,left,right,0.8244028091430664,958733,
0,43,False,left,right,0.9940872192382812,958733,
0,44,True,left,left,0.6484320163726807,958733,
0,45,False,left,right,1.2414610385894775,958733,
0,46,False,left,right,1.002060890197754,958733,
0,47,True,right,right,0.6365151405334473,958733,
0,48,False,left,left,0.7323219776153564,958733,
0,49,False,right,right,0.8065218925476074,958733,
0,50,False,right,left,0.7067451477050781,958733,
0,51,True,left,left,1.009127140045166,958733,
0,52,False,left,left,0.8523929119110107,958733,
0,53,False,right,right,0.8094658851623535,958733,
0,54,True,left,left,0.7214550971984863,958733,
0,55,True,left,left,0.888469934463501,958733,
0,56,True,left,right,0.9051411151885986,958733,
0,57,True,right,left,0.21950793266296387,958733,
0,58,False,right,right,1.0865259170532227,958733,
0,59,False,right,right,0.8478879928588867,958733,
0,60,True,right,left,0.6960139274597168,958733,
0,61,False,right,right,0.7976319789886475,958733,
0,62,False,left,right,0.9618580341339111,958733,
0,63,False,left,right,0.8772931098937988,958733,
0,64,True,right,right,0.525698184967041,958733,
0,65,False,right,right,0.7421820163726807,958733,
0,66,True,left,left,0.5473840236663818,958733,
0,67,False,left,right,1.0212512016296387,958733,
0,68,False,right,right,0.9111220836639404,958733,
0,69,False,right,left,1.055328130722046,958733,
0,70,True,left,right,0.27289915084838867,958733,
0,71,False,left,right,0.714512825012207,958733,
0,72,True,right,right,0.5742249488830566,958733,
0,73,True,right,right,0.4924929141998291,958733,
0,74,False,left,left,1.2020609378814697,958733,
0,75,False,left,left,0.6471209526062012,958733,
0,76,True,right,right,0.5402038097381592,958733,
0,77,True,right,right,0.5224008560180664,958733,
0,78,False,left,left,0.8447999954223633,958733,
0,79,True,right,right,0.730726957321167,958733,
0,80,False,right,left,1.3416759967803955,958733,
0,81,True,left,left,0.5549111366271973,958733,
0,82,True,left,left,0.6099281311035156,958733,
0,83,True,right,right,0.6582310199737549,958733,
0,84,False,left,left,0.7643311023712158,958733,
0,85,False,left,left,0.6078600883483887,958733,
0,86,False,right,left,0.8631370067596436,958733,
0,87,True,left,left,0.8104968070983887,958733,
0,88,False,right,right,1.036571979522705,958733,
0,89,False,right,right,0.7670910358428955,958733,
0,90,False,right,right,0.6247968673706055,958733,
0,91,False,right,left,0.8678770065307617,958733,
0,92,False,right,right,0.695626974105835,958733,
0,93,True,left,right,0.6357901096343994,958733,
0,94,True,right,right,0.5989120006561279,958733,
0,95,False,left,left,0.8638179302215576,958733,
0,96,True,left,left,0.7993710041046143,958733,
0,97,False,left,right,1.1992759704589844,958733,
0,98,True,left,left,0.7036449909210205,958733,
0,99,True,left,left,0.7603280544281006,958733,
1,0,True,right,left,1.4672651290893555,958733,
1,1,False,right,right,0.8893070220947266,958733,
1,2,True,right,left,0.9069840908050537,958733,
1,3,True,left,left,0.7358419895172119,958733,
1,4,True,right,right,0.4927191734313965,958733,
1,5,True,left,right,1.1910250186920166,958733,
1,6,True,left,right,0.8477249145507812,958733,
1,7,False,left,left,1.238556146621704,958733,
1,8,True,right,right,0.7002809047698975,958733,
1,9,False,left,right,0.789207935333252,958733,
1,10,False,right,right,0.8165500164031982,958733,
1,11,False,left,right,0.7162051200866699,958733,
1,12,True,right,right,0.5744609832763672,958733,
1,13,True,left,left,0.8511450290679932,958733,
1,14,False,left,left,0.3648550510406494,958733,
1,15,False,right,right,0.9189209938049316,958733,
1,16,True,right,left,0.9650771617889404,958733,
1,17,False,left,left,1.178745985031128,958733,
1,18,True,right,left,1.1059231758117676,958733,
1,19,False,right,right,0.8669579029083252,958733,
1,20,False,right,right,0.757922887802124,958733,
1,21,True,right,left,0.8610172271728516,958733,
1,22,True,left,left,0.8845889568328857,958733,
1,23,True,left,right,1.1615960597991943,958733,
1,24,False,right,right,0.8462061882019043,958733,
1,25,False,left,left,1.627129077911377,958733,
1,26,False,right,right,0.8848831653594971,958733,
1,27,True,right,left,0.7326631546020508,958733,
1,28,False,right,left,0.8784630298614502,958733,
1,29,True,right,left,0.9868409633636475,958733,
1,30,True,right,left,1.0321760177612305,958733,
1,31,True,right,left,1.0477111339569092,958733,
1,32,True,left,right,0.7328610420227051,958733,
1,33,False,left,left,0.7229819297790527,958733,
1,34,False,left,left,0.8119361400604248,958733,
1,35,True,right,right,0.9133460521697998,958733,
1,36,True,right,right,0.8559880256652832,958733,
1,37,False,left,left,0.8172540664672852,958733,
1,38,False,right,left,0.5288710594177246,958733,
1,39,True,right,left,0.7036550045013428,958733,
1,40,False,left,left,0.5441081523895264,958733,
1,41,False,left,left,0.5627150535583496,958733,
1,42,True,right,right,0.5642399787902832,958733,
1,43,True,right,right,0.6967611312866211,958733,
1,44,False,right,left,0.7337729930877686,958733,
1,45,False,right,left,0.528156042098999,958733,
1,46,True,left,right,0.8594911098480225,958733,
1,47,True,right,right,1.1572191715240479,958733,
1,48,True,right,left,0.9728960990905762,958733,
1,49,False,left,left,0.7972819805145264,958733,
1,50,True,left,right,1.1092560291290283,958733,
1,51,True,left,right,0.6476321220397949,958733,
1,52,False,left,left,0.8654069900512695,958733,
1,53,False,left,left,0.7257058620452881,958733,
1,54,False,right,left,0.9528050422668457,958733,
1,55,True,right,left,0.9086179733276367,958733,
1,56,True,right,right,0.8147320747375488,958733,
1,57,True,left,right,0.669083833694458,958733,
1,58,False,left,left,0.7683489322662354,958733,
1,59,False,right,left,0.7387380599975586,958733,
1,60,True,left,left,0.8821029663085938,958733,
1,61,True,left,right,1.2392258644104004,958733,
1,62,True,right,right,0.906804084777832,958733,
1,63,True,left,right,1.2668099403381348,958733,
1,64,True,right,left,0.8658790588378906,958733,
1,65,True,left,left,0.9012949466705322,958733,
1,66,True,right,right,0.5818772315979004,958733,
1,67,True,left,left,0.7943840026855469,958733,
1,68,False,right,left,1.1127941608428955,958733,
1,69,True,left,left,0.8335609436035156,958733,
1,70,False,left,right,1.0568010807037354,958733,
1,71,False,left,right,1.0495741367340088,958733,
1,72,True,left,right,0.4078369140625,958733,
1,73,True,right,right,0.5306460857391357,958733,
1,74,True,left,left,0.9543771743774414,958733,
1,75,True,left,right,0.9179260730743408,958733,
1,76,True,left,left,0.7697598934173584,958733,
1,77,False,left,left,1.3170621395111084,958733,
1,78,False,left,left,0.8915750980377197,958733,
1,79,True,right,right,0.7813489437103271,958733,
1,80,True,left,right,1.043745994567871,958733,
1,81,True,right,left,1.1573309898376465,958733,
1,82,True,right,left,0.9156830310821533,958733,
1,83,True,right,left,1.2912569046020508,958733,
1,84,True,right,right,1.0274670124053955,958733,
1,85,True,right,left,0.8623511791229248,958733,
1,86,False,right,right,1.0281879901885986,958733,
1,87,True,left,right,1.4420199394226074,958733,
1,88,False,right,right,0.8364999294281006,958733,
1,89,False,left,left,1.2248921394348145,958733,
1,90,True,right,right,1.2519571781158447,958733,
1,91,True,left,right,1.6136178970336914,958733,
1,92,False,left,left,0.9285440444946289,958733,
1,93,True,left,right,0.8684380054473877,958733,
1,94,False,right,right,1.0057151317596436,958733,
1,95,True,left,right,0.9545319080352783,958733,
1,96,True,right,left,1.2004849910736084,958733,
1,97,False,left,left,0.8168139457702637,958733,
1,98,True,left,right,0.5613610744476318,958733,
1,99,False,left,right,0.7111608982086182,958733,
2,0,True,left,left,1.588313102722168,958733,
2,1,False,right,right,0.8549919128417969,958733,
2,2,False,left,left,1.0741009712219238,958733,
2,3,False,left,right,0.6340339183807373,958733,
2,4,True,left,left,0.6640529632568359,958733,
2,5,False,right,right,0.6000649929046631,958733,
2,6,False,right,right,0.6979122161865234,958733,
2,7,True,right,right,0.9488329887390137,958733,
2,8,True,right,right,0.532883882522583,958733,
2,9,True,left,right,0.9927129745483398,958733,
2,10,True,left,left,0.8928630352020264,958733,
2,11,False,right,right,0.5614311695098877,958733,
2,12,False,right,left,0.9224908351898193,958733,
2,13,True,left,right,0.9565398693084717,958733,
2,14,False,left,right,0.6653158664703369,958733,
2,15,True,right,right,0.5969979763031006,958733,
2,16,False,right,right,0.5861530303955078,958733,
2,17,False,left,right,1.8547470569610596,958733,
2,18,False,left,left,0.8930909633636475,958733,
2,19,False,right,right,0.6578900814056396,958733,
2,20,False,right,left,0.8304669857025146,958733,
2,21,False,left,left,0.6716599464416504,958733,
2,22,False,right,left,0.7950468063354492,958733,
2,23,False,left,left,0.7133810520172119,958733,
2,24,False,right,right,0.6977040767669678,958733,
2,25,False,left,left,0.6147398948669434,958733,
2,26,False,right,right,0.6683349609375,958733,
2,27,True,right,right,0.5591909885406494,958733,
2,28,False,right,right,0.7577168941497803,958733,
2,29,False,left,left,0.602816104888916,958733,
2,30,True,left,right,0.6484279632568359,958733,
2,31,False,left,left,0.9844391345977783,958733,
2,32,True,left,right,0.5415849685668945,958733,
2,33,True,left,right,0.789125919342041,958733,
2,34,True,right,right,0.5707290172576904,958733,
2,35,False,left,left,0.6158790588378906,958733,
2,36,True,left,right,0.8726770877838135,958733,
2,37,False,right,left,0.6415219306945801,958733,
2,38,False,right,right,0.7597930431365967,958733,
2,39,False,right,left,0.7064688205718994,958733,
2,40,True,right,right,1.1696960926055908,958733,
2,41,True,left,right,0.9799671173095703,958733,
2,42,True,right,left,1.2261970043182373,958733,
2,43,True,right,right,0.6449229717254639,958733,
2,44,True,left,left,0.5517489910125732,958733,
2,45,True,left,left,0.7728610038757324,958733,
2,46,True,left,left,0.7103641033172607,958733,
2,47,False,right,right,0.8545441627502441,958733,
2,48,False,right,right,0.7519259452819824,958733,
2,49,False,left,left,0.8233067989349365,958733,
2,50,False,left,right,0.892672061920166,958733,
2,51,True,right,left,0.8939759731292725,958733,
2,52,False,left,left,1.205348014831543,958733,
2,53,True,right,left,0.7049288749694824,958733,
2,54,True,left,right,0.9886741638183594,958733,
2,55,False,right,left,1.007836103439331,958733,
2,56,True,left,left,0.6705548763275146,958733,
2,57,False,left,left,0.8064489364624023,958733,
2,58,True,right,right,0.8892669677734375,958733,
2,59,False,right,right,0.7324349880218506,958733,
2,60,False,right,left,0.7795000076293945,958733,
2,61,False,right,right,0.9154531955718994,958733,
2,62,True,right,right,0.5747120380401611,958733,
2,63,False,left,left,0.6270549297332764,958733,
2,64,True,right,right,0.6294488906860352,958733,
2,65,False,left,left,0.7807860374450684,958733,
2,66,False,right,right,0.9982171058654785,958733,
2,67,True,left,right,0.49617695808410645,958733,
2,68,False,left,left,0.6321830749511719,958733,
2,69,False,right,right,0.893481969833374,958733,
2,70,False,left,left,0.6306180953979492,958733,
2,71,False,right,right,0.8260369300842285,958733,
2,72,False,right,left,0.8252720832824707,958733,
2,73,True,left,left,0.6621160507202148,958733,
2,74,True,left,left,0.7949059009552002,958733,
2,75,True,right,right,0.7468490600585938,958733,
2,76,False,left,left,0.7771511077880859,958733,
2,77,True,right,right,0.5334839820861816,958733,
2,78,True,right,right,0.7806289196014404,958733,
2,79,False,left,right,1.052049160003662,958733,
2,80,False,right,right,1.3490631580352783,958733,
2,81,True,right,left,0.8272600173950195,958733,
2,82,False,left,left,0.7011940479278564,958733,
2,83,True,left,right,0.6673040390014648,958733,
2,84,False,right,right,0.8648409843444824,958733,
2,85,True,right,right,0.6609010696411133,958733,
2,86,True,right,right,0.7595040798187256,958733,
2,87,False,left,left,0.7390239238739014,958733,
2,88,False,right,right,0.8933851718902588,958733,
2,89,True,left,left,0.9268229007720947,958733,
2,90,True,left,left,0.8985130786895752,958733,
2,91,False,right,right,0.7905440330505371,958733,
2,92,True,left,right,1.0861430168151855,958733,
2,93,True,left,right,0.783048152923584,958733,
2,94,True,left,left,0.7840969562530518,958733,
2,95,False,left,left,0.6909940242767334,958733,
2,96,True,right,right,0.6160449981689453,958733,
2,97,True,right,right,1.6172151565551758,958733,
2,98,True,left,right,0.5100030899047852,958733,
2,99,False,left,left,0.6068809032440186,958733,
3,0,False,left,left,0.7485721111297607,958733,
3,1,True,left,right,0.6482720375061035,958733,
3,2,False,right,right,0.5704350471496582,958733,
3,3,True,left,left,0.7726099491119385,958733,
3,4,True,left,right,0.8359229564666748,958733,
3,5,True,right,right,0.5707318782806396,958733,
3,6,False,right,right,0.8306410312652588,958733,
3,7,True,right,right,0.7037680149078369,958733,
3,8,True,right,left,1.0065388679504395,958733,
3,9,True,right,right,0.876514196395874,958733,
3,10,False,right,right,0.9626619815826416,958733,
3,11,True,left,left,0.9620189666748047,958733,
3,12,False,right,right,0.7370700836181641,958733,
3,13,False,left,left,0.8510270118713379,958733,
3,14,False,left,right,0.9873020648956299,958733,
3,15,True,right,right,0.6752350330352783,958733,
3,16,True,left,right,0.7946808338165283,958733,
3,17,True,right,right,0.7436568737030029,958733,
3,18,True,left,left,0.6100869178771973,958733,
3,19,True,left,right,1.161059856414795,958733,
3,20,True,right,left,1.1056630611419678,958733,
3,21,True,left,right,1.2346909046173096,958733,
3,22,True,left,right,1.2943828105926514,958733,
3,23,False,left,left,1.1700689792633057,958733,
3,24,True,right,right,0.7867929935455322,958733,
3,25,False,left,right,0.9829649925231934,958733,
3,26,False,left,left,0.851747989654541,958733,
3,27,True,right,right,0.08524584770202637,958733,
3,28,True,right,right,1.0578410625457764,958733,
3,29,False,left,left,0.6524701118469238,958733,
3,30,True,left,right,1.3543000221252441,958733,
3,31,True,left,right,1.0961360931396484,958733,
3,32,True,right,right,0.5105059146881104,958733,
3,33,True,left,right,0.9131839275360107,958733,
3,34,True,right,left,0.7476730346679688,958733,
3,35,False,right,left,1.1019799709320068,958733,
3,36,False,right,right,0.833306074142456,958733,
3,37,True,right,right,0.6551079750061035,958733,
3,38,True,right,right,1.349010944366455,958733,
3,39,True,left,right,0.680217981338501,958733,
3,40,False,left,left,0.6422829627990723,958733,
3,41,False,right,right,0.7559340000152588,958733,
3,42,True,right,left,1.0146188735961914,958733,
3,43,False,right,right,0.8506920337677002,958733,
3,44,True,left,right,0.7852308750152588,958733,
3,45,False,right,right,0.6916441917419434,958733,
3,46,False,right,right,0.7680320739746094,958733,
3,47,False,right,right,0.6388909816741943,958733,
3,48,True,left,right,2.7051148414611816,958733,
3,49,False,left,right,0.8869490623474121,958733,
3,50,True,left,right,0.999413013458252,958733,
3,51,False,right,right,0.7297241687774658,958733,
3,52,False,right,right,0.7883341312408447,958733,
3,53,False,left,left,0.699774980545044,958733,
3,54,True,right,left,0.818903923034668,958733,
3,55,True,right,right,0.8672699928283691,958733,
3,56,True,left,right,0.7192668914794922,958733,
3,57,False,right,right,0.7401549816131592,958733,
3,58,False,right,right,0.6675541400909424,958733,
3,59,False,right,right,0.6077969074249268,958733,
3,60,True,right,right,0.8252038955688477,958733,
3,61,True,right,left,0.9546821117401123,958733,
3,62,True,left,right,0.9286069869995117,958733,
3,63,True,left,left,0.9207639694213867,958733,
3,64,False,left,left,0.6507530212402344,958733,
3,65,True,left,right,1.197782039642334,958733,
3,66,False,right,right,0.7229750156402588,958733,
3,67,False,right,right,0.6450459957122803,958733,
3,68,True,left,left,0.8267691135406494,958733,
3,69,False,right,right,0.6008830070495605,958733,
3,70,True,right,left,1.0235860347747803,958733,
3,71,False,right,right,0.6576089859008789,958733,
3,72,False,left,left,0.9120440483093262,958733,
3,73,False,left,left,0.6887969970703125,958733,
3,74,False,right,right,0.7881109714508057,958733,
3,75,True,right,left,0.7998950481414795,958733,
3,76,False,left,left,0.641855001449585,958733,
3,77,False,left,left,0.5525219440460205,958733,
3,78,True,left,left,0.7515711784362793,958733,
3,79,False,right,right,0.7492179870605469,958733,
3,80,False,left,left,0.6004128456115723,958733,
3,81,False,right,right,0.7571260929107666,958733,
3,82,True,right,right,0.9756810665130615,958733,
3,83,True,left,right,1.0233278274536133,958733,
3,84,False,right,right,0.9292809963226318,958733,
3,85,False,left,left,0.6792850494384766,958733,
3,86,True,right,right,0.9220778942108154,958733,
3,87,False,right,left,1.269425868988037,958733,
3,88,False,right,right,0.7025320529937744,958733,
3,89,False,left,left,0.6051311492919922,958733,
3,90,False,left,right,0.7428750991821289,958733,
3,91,False,left,left,0.679114818572998,958733,
3,92,True,left,left,0.7787919044494629,958733,
3,93,True,right,right,0.8076109886169434,958733,
3,94,False,left,right,0.9678812026977539,958733,
3,95,True,left,right,0.7442131042480469,958733,
3,96,True,left,left,0.7331228256225586,958733,
3,97,False,left,left,0.6061291694641113,958733,
3,98,False,left,right,0.8826470375061035,958733,
3,99,True,left,right,0.7427239418029785,958733,
4,0,False,left,right,1.499518871307373,958733,
4,1,False,right,right,0.5902268886566162,958733,
4,2,True,right,left,0.8520841598510742,958733,
4,3,True,left,right,0.7689459323883057,958733,
4,4,True,left,left,0.9547021389007568,958733,
4,5,False,right,right,0.5476188659667969,958733,
4,6,False,left,right,0.756201982498169,958733,
4,7,True,right,right,0.979651927947998,958733,
4,8,False,right,right,1.0486528873443604,958733,
4,9,True,left,left,1.030102014541626,958733,
4,10,True,left,left,0.7708399295806885,958733,
4,11,False,left,right,0.6041438579559326,958733,
4,12,True,right,right,0.9936089515686035,958733,
4,13,True,right,right,0.6566650867462158,958733,
4,14,False,right,right,0.6415488719940186,958733,
4,15,True,right,left,0.689445972442627,958733,
4,16,True,left,left,0.6380970478057861,958733,
4,17,False,right,right,0.5423109531402588,958733,
4,18,True,left,left,0.6201269626617432,958733,
4,19,True,right,right,0.5825059413909912,958733,
4,20,False,right,right,0.6599910259246826,958733,
4,21,True,right,right,0.6723170280456543,958733,
4,22,True,right,left,0.8053569793701172,958733,
4,23,True,right,left,1.2075550556182861,958733,
4,24,True,right,left,1.0854518413543701,958733,
4,25,False,right,left,0.958651065826416,958733,
4,26,False,right,right,0.5572719573974609,958733,
4,27,False,right,right,0.5465259552001953,958733,
4,28,True,left,left,0.8382408618927002,958733,
4,29,False,left,right,0.9133570194244385,958733,
4,30,True,right,left,0.8129191398620605,958733,
4,31,True,left,left,1.0200090408325195,958733,
4,32,False,right,right,0.651127815246582,958733,
4,33,True,right,left,0.9285809993743896,958733,
4,34,True,right,right,1.0402028560638428,958733,
4,35,False,left,left,0.8661038875579834,958733,
4,36,False,left,right,0.9175138473510742,958733,
4,37,False,right,right,0.6399779319763184,958733,
4,38,False,right,right,0.6603951454162598,958733,
4,39,False,right,right,0.6114029884338379,958733,
4,40,False,left,left,0.949260950088501,958733,
4,41,True,left,left,0.8174951076507568,958733,
4,42,True,right,left,0.9355621337890625,958733,
4,43,True,right,right,0.7383449077606201,958733,
4,44,False,right,right,0.5169129371643066,958733,
4,45,False,right,right,0.593742847442627,958733,
4,46,False,right,right,0.5605108737945557,958733,
4,47,False,left,left,0.8507440090179443,958733,
4,48,True,right,left,0.7841358184814453,958733,
4,49,True,left,right,0.7148928642272949,958733,
4,50,False,left,left,0.7103500366210938,958733,
4,51,False,left,left,0.6681890487670898,958733,
4,52,False,left,right,0.8171069622039795,958733,
4,53,False,right,right,1.3653810024261475,958733,
4,54,True,left,right,0.8729658126831055,958733,
4,55,False,right,right,1.056123971939087,958733,
4,56,True,left,right,0.9073729515075684,958733,
4,57,False,right,right,0.9252398014068604,958733,
4,58,False,left,left,0.6516549587249756,958733,
4,59,False,left,right,0.7503759860992432,958733,
4,60,True,left,left,0.6212639808654785,958733,
4,61,False,left,left,0.49901700019836426,958733,
4,62,False,left,right,0.7693400382995605,958733,
4,63,False,right,right,1.1557331085205078,958733,
4,64,False,left,left,0.6095879077911377,958733,
4,65,True,left,left,0.7728497982025146,958733,
4,66,False,right,right,0.613785982131958,958733,
4,67,True,left,left,0.7712380886077881,958733,
4,68,False,left,left,0.4886441230773926,958733,
4,69,False,right,right,0.636152982711792,958733,
4,70,False,right,right,0.6321380138397217,958733,
4,71,False,left,left,0.5717778205871582,958733,
4,72,True,left,left,0.8692231178283691,958733,
4,73,True,right,right,0.7582540512084961,958733,
4,74,False,left,left,0.5567450523376465,958733,
4,75,False,left,left,0.7146608829498291,958733,
4,76,True,right,right,0.7582001686096191,958733,
4,77,True,left,right,0.496096134185791,958733,
4,78,False,left,left,0.7102329730987549,958733,
4,79,False,right,right,0.7131540775299072,958733,
4,80,False,left,left,0.6531929969787598,958733,
4,81,False,right,right,0.6437621116638184,958733,
4,82,False,right,left,0.5705881118774414,958733,
4,83,False,left,left,0.5361039638519287,958733,
4,84,True,left,left,0.6938369274139404,958733,
4,85,False,left,left,0.6730010509490967,958733,
4,86,True,right,right,0.6210379600524902,958733,
4,87,True,left,left,1.0748708248138428,958733,
4,88,True,right,right,0.8912849426269531,958733,
4,89,False,right,left,0.8426580429077148,958733,
4,90,False,left,left,0.6850728988647461,958733,
4,91,False,left,left,0.6260449886322021,958733,
4,92,False,right,right,0.5632538795471191,958733,
4,93,False,left,left,0.5463809967041016,958733,
4,94,True,right,right,2.81030011177063,958733,
4,95,False,left,left,0.6302499771118164,958733,
4,96,True,left,right,0.4562110900878906,958733,
4,97,True,left,right,0.7194159030914307,958733,
4,98,False,left,left,0.6653521060943604,958733,
4,99,False,right,right,0.7378621101379395,958733,
5,0,False,left,left,0.7083988189697266,958733,
5,1,True,left,left,0.5909121036529541,958733,
5,2,True,right,right,0.6328010559082031,958733,
5,3,True,right,right,0.8631799221038818,958733,
5,4,True,right,right,1.0172979831695557,958733,
5,5,False,left,left,0.7427370548248291,958733,
5,6,True,right,left,0.9202609062194824,958733,
5,7,False,left,left,0.60414719581604,958733,
5,8,False,right,right,0.7076098918914795,958733,
5,9,False,left,left,0.6735079288482666,958733,
5,10,True,right,right,0.6665730476379395,958733,
5,11,True,left,right,1.0675480365753174,958733,
5,12,True,left,left,0.6195530891418457,958733,
5,13,False,left,left,0.6412701606750488,958733,
5,14,True,left,left,0.964440107345581,958733,
5,15,False,left,right,0.7550339698791504,958733,
5,16,False,right,right,0.8043150901794434,958733,
5,17,True,right,right,0.6780529022216797,958733,
5,18,False,right,left,0.7067978382110596,958733,
5,19,True,left,left,1.16845703125,958733,
5,20,False,right,right,0.5486900806427002,958733,
5,21,False,right,right,0.9868590831756592,958733,
5,22,True,left,right,0.9402570724487305,958733,
5,23,False,right,left,0.767521858215332,958733,
5,24,False,left,right,0.638983964920044,958733,
5,25,True,left,left,1.3438711166381836,958733,
5,26,False,left,left,0.5396368503570557,958733,
5,27,True,left,right,1.070119857788086,958733,
5,28,True,right,right,0.8895339965820312,958733,
5,29,True,right,left,0.8327169418334961,958733,
5,30,False,right,right,1.0834181308746338,958733,
5,31,False,right,left,0.6064598560333252,958733,
5,32,True,right,right,0.8178691864013672,958733,
5,33,False,right,left,0.5854630470275879,958733,
5,34,True,left,left,0.7686290740966797,958733,
5,35,False,left,right,0.7423169612884521,958733,
5,36,True,right,right,0.5819859504699707,958733,
5,37,True,right,right,0.7923169136047363,958733,
5,38,False,right,left,0.6641778945922852,958733,
5,39,False,right,right,0.7491340637207031,958733,
5,40,True,right,left,1.1395189762115479,958733,
5,41,False,right,left,1.9096448421478271,958733,
5,42,False,left,right,0.8165841102600098,958733,
5,43,False,left,right,0.8790879249572754,958733,
5,44,False,left,left,0.6065821647644043,958733,
5,45,True,left,right,0.7531869411468506,958733,
5,46,False,left,left,0.6559739112854004,958733,
5,47,True,left,left,0.9225010871887207,958733,
5,48,False,left,right,1.0427141189575195,958733,
5,49,True,right,right,1.0118470191955566,958733,
5,50,True,right,right,0.939781904220581,958733,
5,51,True,left,right,0.8310859203338623,958733,
5,52,False,right,right,0.8133969306945801,958733,
5,53,True,right,right,0.6017889976501465,958733,
5,54,False,left,left,0.6034698486328125,958733,
5,55,False,left,right,0.8813149929046631,958733,
5,56,False,right,left,0.5374658107757568,958733,
5,57,False,left,left,0.5342261791229248,958733,
5,58,False,right,right,0.6445791721343994,958733,
5,59,False,right,left,0.7297320365905762,958733,
5,60,True,left,left,1.0860490798950195,958733,
5,61,True,right,left,1.0936532020568848,958733,
5,62,True,right,right,0.9623489379882812,958733,
5,63,True,right,right,0.9079160690307617,958733,
5,64,False,right,right,1.1694138050079346,958733,
5,65,True,left,left,0.9491147994995117,958733,
5,66,False,left,left,0.5816249847412109,958733,
5,67,False,right,right,0.6920769214630127,958733,
5,68,False,right,right,0.7379410266876221,958733,
5,69,False,left,left,0.8752710819244385,958733,
5,70,False,right,right,0.5903100967407227,958733,
5,71,True,right,right,1.0364131927490234,958733,
5,72,True,right,left,0.9429750442504883,958733,
5,73,True,left,left,0.8572039604187012,958733,
5,74,True,left,right,1.2816669940948486,958733,
5,75,True,left,right,0.8682231903076172,958733,
5,76,True,right,right,0.7002191543579102,958733,
5,77,True,left,left,0.5858001708984375,958733,
5,78,False,left,right,0.8249180316925049,958733,
5,79,False,left,left,0.6054799556732178,958733,
5,80,False,left,right,0.6141519546508789,958733,
5,81,True,left,right,1.0010550022125244,958733,
5,82,True,left,left,0.9568629264831543,958733,
5,83,True,left,left,0.8831839561462402,958733,
5,84,False,right,right,1.0232269763946533,958733,
5,85,True,right,left,0.8122870922088623,958733,
5,86,True,right,left,0.7066190242767334,958733,
5,87,False,right,right,0.7767457962036133,958733,
5,88,True,left,left,1.245239019393921,958733,
5,89,True,right,left,0.8426239490509033,958733,
5,90,False,left,left,1.279667854309082,958733,
5,91,False,left,right,0.7000448703765869,958733,
5,92,False,left,left,0.9695727825164795,958733,
5,93,False,right,right,0.6478681564331055,958733,
5,94,False,right,left,0.8865311145782471,958733,
5,95,False,right,right,0.6150579452514648,958733,
5,96,False,left,left,0.705070972442627,958733,
5,97,False,left,right,0.726870059967041,958733,
5,98,True,right,right,0.6406738758087158,958733,
5,99,False,left,left,0.5930759906768799,958733,
6,0,False,right,right,0.9109981060028076,958733,
6,1,True,left,left,0.6600799560546875,958733,
6,2,False,left,right,0.5953969955444336,958733,
6,3,True,left,right,0.5342111587524414,958733,
6,4,False,left,right,0.6327791213989258,958733,
6,5,True,right,left,0.8456649780273438,958733,
6,6,True,left,left,0.6576998233795166,958733,
6,7,True,left,right,0.9361460208892822,958733,
6,8,False,right,right,0.6046738624572754,958733,
6,9,False,left,left,0.5890810489654541,958733,
6,10,False,right,right,0.7290329933166504,958733,
6,11,True,right,left,0.6011950969696045,958733,
6,12,True,right,left,0.9124629497528076,958733,
6,13,False,right,left,0.9248340129852295,958733,
6,14,False,right,right,0.7141799926757812,958733,
6,15,True,left,right,0.7846519947052002,958733,
6,16,True,left,right,0.5219278335571289,958733,
6,17,True,left,left,0.9002430438995361,958733,
6,18,True,right,right,0.37268900871276855,958733,
6,19,False,left,right,0.6607730388641357,958733,
6,20,False,right,right,0.8681240081787109,958733,
6,21,False,left,left,0.7617261409759521,958733,
6,22,True,right,right,1.6083180904388428,958733,
6,23,True,right,left,0.8103041648864746,958733,
6,24,True,left,right,0.3175790309906006,958733,
6,25,True,left,right,0.43090105056762695,958733,
6,26,False,right,right,0.8517379760742188,958733,
6,27,True,right,right,0.5120589733123779,958733,
6,28,True,right,right,0.6147408485412598,958733,
6,29,False,left,right,1.3811180591583252,958733,
6,30,True,left,right,0.7363219261169434,958733,
6,31,True,left,right,0.5120987892150879,958733,
6,32,False,right,right,0.6163170337677002,958733,
6,33,False,right,left,0.5796849727630615,958733,
6,34,False,right,right,0.5485098361968994,958733,
6,35,True,right,right,0.6286799907684326,958733,
6,36,True,left,left,1.0694169998168945,958733,
6,37,True,right,left,1.119215965270996,958733,
6,38,False,right,right,0.5601050853729248,958733,
6,39,False,right,right,0.6894049644470215,958733,
6,40,True,right,left,0.6633319854736328,958733,
6,41,False,left,left,0.7137339115142822,958733,
6,42,True,left,right,0.5508480072021484,958733,
6,43,False,right,right,0.5462729930877686,958733,
6,44,True,right,right,0.5104119777679443,958733,
6,45,True,right,left,0.6875970363616943,958733,
6,46,False,left,left,0.8697319030761719,958733,
6,47,False,right,right,0.6164650917053223,958733,
6,48,False,left,left,0.7934250831604004,958733,
6,49,False,right,right,0.48287105560302734,958733,
6,50,False,right,left,0.6267490386962891,958733,
6,51,False,right,right,0.5319600105285645,958733,
6,52,True,left,right,0.5324540138244629,958733,
6,53,False,left,left,0.7638678550720215,958733,
6,54,True,left,left,0.77593994140625,958733,
6,55,False,right,right,0.6965320110321045,958733,
6,56,True,left,left,0.6773948669433594,958733,
6,57,True,left,right,0.6375811100006104,958733,
6,58,True,left,right,0.4759500026702881,958733,
6,59,False,right,right,0.5040969848632812,958733,
6,60,True,right,right,0.8842298984527588,958733,
6,61,True,left,right,0.9212090969085693,958733,
6,62,True,left,right,1.2075800895690918,958733,
6,63,False,right,right,0.4921410083770752,958733,
6,64,True,left,left,0.975316047668457,958733,
6,65,False,right,left,0.7627739906311035,958733,
6,66,False,right,right,0.5879669189453125,958733,
6,67,False,right,right,0.6660060882568359,958733,
6,68,True,left,right,0.8712079524993896,958733,
6,69,False,left,right,0.6155087947845459,958733,
6,70,False,right,right,0.656876802444458,958733,
6,71,False,right,right,0.5928168296813965,958733,
6,72,False,left,right,0.5937647819519043,958733,
6,73,True,left,left,0.7241098880767822,958733,
6,74,False,right,right,0.6571059226989746,958733,
6,75,False,left,left,0.86456298828125,958733,
6,76,False,left,right,0.5701329708099365,958733,
6,77,True,left,right,0.7362449169158936,958733,
6,78,False,left,left,0.5784049034118652,958733,
6,79,False,left,left,0.7298359870910645,958733,
6,80,False,left,right,0.5402519702911377,958733,
6,81,False,right,right,0.10450196266174316,958733,
6,82,False,left,right,0.7871901988983154,958733,
6,83,False,right,left,0.5747840404510498,958733,
6,84,False,right,right,0.5520308017730713,958733,
6,85,True,right,left,0.8728659152984619,958733,
6,86,False,left,left,0.5769720077514648,958733,
6,87,False,right,right,0.6501181125640869,958733,
6,88,True,left,left,0.845099925994873,958733,
6,89,True,left,right,0.7517948150634766,958733,
6,90,False,right,right,0.791003942489624,958733,
6,91,True,right,right,0.6232390403747559,958733,
6,92,True,left,left,1.107745885848999,958733,
6,93,True,right,left,1.0029900074005127,958733,
6,94,True,right,right,0.8292100429534912,958733,
6,95,True,right,right,0.8671329021453857,958733,
6,96,True,left,right,0.9830589294433594,958733,
6,97,False,left,right,0.9599649906158447,958733,
6,98,True,left,left,1.156505823135376,958733,
6,99,True,left,left,1.649169921875,958733,
7,0,False,right,right,1.3450899124145508,958733,
7,1,True,right,left,0.8094840049743652,958733,
7,2,False,left,left,0.5636529922485352,958733,
7,3,False,left,left,0.6910538673400879,958733,
7,4,True,right,right,0.7032499313354492,958733,
7,5,False,left,left,0.6347410678863525,958733,
7,6,True,right,right,0.6028430461883545,958733,
7,7,False,left,left,0.8217628002166748,958733,
7,8,False,right,right,0.5648839473724365,958733,
7,9,False,left,left,0.8105368614196777,958733,
7,10,True,left,left,0.9003250598907471,958733,
7,11,True,right,left,0.9395930767059326,958733,
7,12,False,right,left,0.7305750846862793,958733,
7,13,False,right,left,0.7242472171783447,958733,
7,14,False,right,right,0.6757011413574219,958733,
7,15,True,right,left,0.8904750347137451,958733,
7,16,False,right,right,0.8009128570556641,958733,
7,17,True,left,left,1.0345251560211182,958733,
7,18,True,left,right,0.9360499382019043,958733,
7,19,True,left,left,0.6124880313873291,958733,
7,20,False,right,left,0.6114439964294434,958733,
7,21,False,left,left,0.7740399837493896,958733,
7,22,True,left,left,0.9346628189086914,958733,
7,23,True,left,left,0.7393009662628174,958733,
7,24,True,left,left,0.6644330024719238,958733,
7,25,False,left,left,0.690762996673584,958733,
7,26,True,left,right,0.8563220500946045,958733,
7,27,True,right,left,0.8451869487762451,958733,
7,28,False,left,left,0.6685090065002441,958733,
7,29,False,left,right,0.700916051864624,958733,
7,30,True,left,right,0.8873178958892822,958733,
7,31,False,left,left,0.6887290477752686,958733,
7,32,False,left,right,0.9068200588226318,958733,
7,33,True,right,left,0.9769229888916016,958733,
7,34,False,right,left,0.5897068977355957,958733,
7,35,False,right,right,0.7071490287780762,958733,
7,36,False,left,left,0.5969011783599854,958733,
7,37,False,left,left,0.6549508571624756,958733,
7,38,False,left,left,0.5248100757598877,958733,
7,39,False,left,left,0.5302231311798096,958733,
7,40,False,right,left,0.5867490768432617,958733,
7,41,True,right,right,0.6766340732574463,958733,
7,42,False,right,right,0.571173906326294,958733,
7,43,True,left,right,0.8971490859985352,958733,
7,44,False,right,left,1.470952033996582,958733,
7,45,False,right,right,0.9109940528869629,958733,
7,46,True,left,left,0.9043350219726562,958733,
7,47,True,left,left,0.7372639179229736,958733,
7,48,False,left,left,0.6396100521087646,958733,
7,49,True,right,left,0.6363029479980469,958733,
7,50,True,right,right,0.4638710021972656,958733,
7,51,True,right,left,0.8156290054321289,958733,
7,52,True,left,left,1.1163740158081055,958733,
7,53,True,right,right,0.635915994644165,958733,
7,54,True,right,right,0.6384119987487793,958733,
7,55,True,right,left,0.8197240829467773,958733,
7,56,True,left,left,0.6971909999847412,958733,
7,57,False,right,right,1.0990500450134277,958733,
7,58,True,right,left,0.9542179107666016,958733,
7,59,True,left,right,0.9605491161346436,958733,
7,60,False,right,left,0.68402099609375,958733,
7,61,False,left,left,0.6016659736633301,958733,
7,62,False,left,left,0.5415010452270508,958733,
7,63,True,left,left,1.0130019187927246,958733,
7,64,True,left,right,0.9611949920654297,958733,
7,65,False,left,left,0.6325910091400146,958733,
7,66,True,left,left,1.1673619747161865,958733,
7,67,False,right,left,0.6212730407714844,958733,
7,68,True,right,left,0.9126970767974854,958733,
7,69,False,right,right,1.0737130641937256,958733,
7,70,False,right,right,0.8305861949920654,958733,
7,71,True,right,left,0.7905941009521484,958733,
7,72,True,left,right,0.8666379451751709,958733,
7,73,False,left,left,0.534822940826416,958733,
7,74,False,left,left,0.4948289394378662,958733,
7,75,True,right,left,0.9276809692382812,958733,
7,76,False,right,left,0.5545599460601807,958733,
7,77,False,right,left,0.5387070178985596,958733,
7,78,False,right,left,0.4710209369659424,958733,
7,79,False,right,left,0.5678129196166992,958733,
7,80,False,left,left,0.4512009620666504,958733,
7,81,False,right,left,0.49861693382263184,958733,
7,82,False,left,left,0.40284299850463867,958733,
7,83,False,right,left,0.505742073059082,958733,
7,84,True,left,left,0.9436521530151367,958733,
7,85,True,left,right,0.8545999526977539,958733,
7,86,False,left,left,0.5353879928588867,958733,
7,87,False,right,left,0.6489319801330566,958733,
7,88,True,right,left,1.0710499286651611,958733,
7,89,False,left,left,0.5360870361328125,958733,
7,90,False,left,left,0.433837890625,958733,
7,91,False,right,left,0.5516688823699951,958733,
7,92,True,right,right,0.594012975692749,958733,
7,93,False,left,left,0.5525991916656494,958733,
7,94,True,right,left,0.7215499877929688,958733,
7,95,True,right,right,0.7752809524536133,958733,
7,96,True,right,left,0.6277549266815186,958733,
7,97,True,left,right,0.5567131042480469,958733,
7,98,False,left,left,0.5916941165924072,958733,
7,99,True,right,right,0.6785058975219727,958733,
8,0,False,left,right,0.9112300872802734,958733,
8,1,False,right,right,0.592993974685669,958733,
8,2,False,left,left,0.5631861686706543,958733,
8,3,True,right,right,0.683830976486206,958733,
8,4,False,right,left,0.7334949970245361,958733,
8,5,True,left,right,0.726081132888794,958733,
8,6,False,left,right,0.7651340961456299,958733,
8,7,True,right,left,0.592216968536377,958733,
8,8,False,right,right,0.47014808654785156,958733,
8,9,False,left,left,0.5210011005401611,958733,
8,10,True,right,right,0.48850393295288086,958733,
8,11,False,right,left,0.5245881080627441,958733,
8,12,False,left,left,0.4888570308685303,958733,
8,13,True,right,right,0.7821440696716309,958733,
8,14,True,right,right,0.9045910835266113,958733,
8,15,False,right,left,0.5571799278259277,958733,
8,16,False,left,left,0.6663429737091064,958733,
8,17,True,left,left,0.7376189231872559,958733,
8,18,False,right,right,0.5752978324890137,958733,
8,19,False,left,left,0.6115128993988037,958733,
8,20,True,right,left,0.760936975479126,958733,
8,21,False,left,left,0.6327371597290039,958733,
8,22,True,left,right,0.7691380977630615,958733,
8,23,True,left,left,0.6628940105438232,958733,
8,24,True,right,right,0.5391838550567627,958733,
8,25,True,right,left,0.6256499290466309,958733,
8,26,False,right,left,0.7668180465698242,958733,
8,27,False,left,right,0.8949589729309082,958733,
8,28,True,right,right,0.9745700359344482,958733,
8,29,False,left,left,0.43605804443359375,958733,
8,30,True,left,left,0.5369019508361816,958733,
8,31,True,right,right,0.6009459495544434,958733,
8,32,False,right,right,0.558366060256958,958733,
8,33,False,left,left,0.5352890491485596,958733,
8,34,False,right,right,0.6109988689422607,958733,
8,35,True,left,right,0.8585250377655029,958733,
8,36,True,left,left,0.5563700199127197,958733,
8,37,True,right,right,0.5847740173339844,958733,
8,38,True,right,right,0.6983869075775146,958733,
8,39,True,right,left,0.8365938663482666,958733,
8,40,False,right,left,0.5693089962005615,958733,
8,41,True,left,left,0.8717539310455322,958733,
8,42,False,left,right,0.7544248104095459,958733,
8,43,False,right,left,0.6370971202850342,958733,
8,44,False,left,left,0.6885340213775635,958733,
8,45,True,right,left,0.662013053894043,958733,
8,46,True,right,left,0.5410950183868408,958733,
8,47,True,left,left,0.6337790489196777,958733,
8,48,False,left,left,0.7279379367828369,958733,
8,49,True,left,left,0.8609840869903564,958733,
8,50,True,right,right,0.5885851383209229,958733,
8,51,True,left,right,0.7160718441009521,958733,
8,52,True,right,left,0.7035410404205322,958733,
8,53,False,right,left,0.8133430480957031,958733,
8,54,True,right,right,0.7182521820068359,958733,
8,55,True,left,left,0.5599000453948975,958733,
8,56,True,right,left,0.966667890548706,958733,
8,57,True,left,left,1.0501630306243896,958733,
8,58,False,right,right,0.5413360595703125,958733,
8,59,False,right,right,0.6821329593658447,958733,
8,60,False,left,left,0.6412398815155029,958733,
8,61,False,right,right,0.632310152053833,958733,
8,62,True,right,right,1.0862572193145752,958733,
8,63,False,right,right,0.854133129119873,958733,
8,64,True,right,left,0.7195489406585693,958733,
8,65,False,left,left,0.49817705154418945,958733,
8,66,True,right,left,0.8174149990081787,958733,
8,67,False,right,right,0.7466158866882324,958733,
8,68,True,right,left,0.6505041122436523,958733,
8,69,False,right,left,0.82977294921875,958733,
8,70,False,left,left,0.5180788040161133,958733,
8,71,False,left,left,0.44974279403686523,958733,
8,72,False,left,left,0.4542050361633301,958733,
8,73,True,left,left,0.49434995651245117,958733,
8,74,True,left,right,0.6481978893280029,958733,
8,75,True,left,left,0.6161291599273682,958733,
8,76,True,right,right,0.48609089851379395,958733,
8,77,True,right,right,0.456683874130249,958733,
8,78,True,left,left,0.5577619075775146,958733,
8,79,False,right,right,0.5576870441436768,958733,
8,80,True,right,left,0.9085969924926758,958733,
8,81,False,left,left,0.5981509685516357,958733,
8,82,True,right,right,0.5986611843109131,958733,
8,83,False,left,left,1.0548300743103027,958733,
8,84,False,right,left,0.5086448192596436,958733,
8,85,False,left,left,0.5117130279541016,958733,
8,86,True,left,left,0.6229069232940674,958733,
8,87,False,left,left,0.547802209854126,958733,
8,88,False,left,left,0.5425240993499756,958733,
8,89,False,left,left,0.4767310619354248,958733,
8,90,True,left,right,0.44951796531677246,958733,
8,91,True,left,left,0.9451360702514648,958733,
8,92,False,left,left,0.6112470626831055,958733,
8,93,True,right,right,0.5145809650421143,958733,
8,94,True,right,right,0.4070708751678467,958733,
8,95,True,left,right,0.3326380252838135,958733,
8,96,True,left,right,0.965831995010376,958733,
8,97,True,left,left,0.9574170112609863,958733,
8,98,False,right,right,0.6012821197509766,958733,
8,99,False,left,left,0.6086428165435791,958733,
9,0,False,right,right,0.9888858795166016,958733,
9,1,False,right,left,0.587946891784668,958733,
9,2,True,left,left,0.8005938529968262,958733,
9,3,False,right,right,0.7672390937805176,958733,
9,4,True,right,left,1.133802890777588,958733,
9,5,True,right,left,0.7990169525146484,958733,
9,6,False,left,left,0.5258009433746338,958733,
9,7,False,right,right,0.7055559158325195,958733,
9,8,False,left,left,0.5549628734588623,958733,
9,9,True,left,left,0.7344388961791992,958733,
9,10,True,right,right,0.6726858615875244,958733,
9,11,False,right,left,0.5505390167236328,958733,
9,12,False,right,right,0.579582929611206,958733,
9,13,False,right,right,0.823375940322876,958733,
9,14,False,left,left,0.5521261692047119,958733,
9,15,True,left,right,0.7641799449920654,958733,
9,16,False,left,left,0.5428869724273682,958733,
9,17,True,right,right,0.7208631038665771,958733,
9,18,True,right,right,0.7121150493621826,958733,
9,19,False,right,right,0.893733024597168,958733,
9,20,True,left,left,0.6702702045440674,958733,
9,21,False,right,right,0.6593260765075684,958733,
9,22,False,left,left,0.6102960109710693,958733,
9,23,True,left,right,0.8385288715362549,958733,
9,24,False,right,right,0.8879740238189697,958733,
9,25,False,left,left,0.5960938930511475,958733,
9,26,False,left,left,0.6069660186767578,958733,
9,27,True,right,left,0.8562929630279541,958733,
9,28,True,right,right,0.7029900550842285,958733,
9,29,False,left,left,0.6221508979797363,958733,
9,30,False,left,left,0.5733060836791992,958733,
9,31,False,right,right,0.7520120143890381,958733,
9,32,True,left,left,0.7558801174163818,958733,
9,33,True,left,right,0.760753870010376,958733,
9,34,False,left,left,0.5584640502929688,958733,
9,35,True,left,right,0.8736510276794434,958733,
9,36,True,right,left,0.7755370140075684,958733,
9,37,False,right,left,0.567753791809082,958733,
9,38,False,left,right,0.6305999755859375,958733,
9,39,False,right,left,0.7187981605529785,958733,
9,40,False,right,left,0.5441880226135254,958733,
9,41,False,left,right,0.5012049674987793,958733,
9,42,True,left,left,0.886760950088501,958733,
9,43,False,left,left,0.5582160949707031,958733,
9,44,True,left,right,0.5358660221099854,958733,
9,45,False,left,left,0.5356059074401855,958733,
9,46,False,right,left,0.6495330333709717,958733,
9,47,False,left,left,0.9605600833892822,958733,
9,48,True,left,left,0.7020080089569092,958733,
9,49,True,right,right,0.7103860378265381,958733,
9,50,False,left,left,0.541327953338623,958733,
9,51,False,right,left,0.6170210838317871,958733,
9,52,False,right,left,0.5548889636993408,958733,
9,53,False,left,right,0.8533928394317627,958733,
9,54,True,right,left,0.9087958335876465,958733,
9,55,False,right,right,0.8516030311584473,958733,
9,56,False,right,left,0.6434788703918457,958733,
9,57,False,right,left,0.6501150131225586,958733,
9,58,False,right,left,0.5092089176177979,958733,
9,59,False,right,left,0.36138081550598145,958733,
9,60,True,left,left,1.0500719547271729,958733,
9,61,True,left,right,0.7189021110534668,958733,
9,62,False,left,left,0.5606250762939453,958733,
9,63,False,right,right,0.681610107421875,958733,
9,64,False,left,left,0.6115210056304932,958733,
9,65,True,left,left,0.5493049621582031,958733,
9,66,False,right,left,0.5133039951324463,958733,
9,67,False,right,left,0.541273832321167,958733,
9,68,False,left,left,0.5279688835144043,958733,
9,69,False,right,left,0.5303189754486084,958733,
9,70,True,left,right,0.8761258125305176,958733,
9,71,False,left,left,0.5783960819244385,958733,
9,72,False,right,right,0.8045480251312256,958733,
9,73,False,left,left,0.5236051082611084,958733,
9,74,True,right,left,0.6784751415252686,958733,
9,75,False,right,left,0.5267150402069092,958733,
9,76,False,left,left,0.5114579200744629,958733,
9,77,False,right,right,0.7506148815155029,958733,
9,78,True,left,left,0.6537940502166748,958733,
9,79,True,right,right,2.1674351692199707,958733,
9,80,False,left,left,0.5153369903564453,958733,
9,81,False,right,left,0.5306107997894287,958733,
9,82,False,left,left,0.7074298858642578,958733,
9,83,False,right,right,0.6921429634094238,958733,
9,84,True,right,left,0.6442949771881104,958733,
9,85,True,left,right,0.591149091720581,958733,
9,86,True,right,right,0.6327829360961914,958733,
9,87,False,right,right,0.7510731220245361,958733,
9,88,True,left,right,0.5420379638671875,958733,
9,89,True,right,right,0.5123291015625,958733,
9,90,False,left,right,1.1232030391693115,958733,
9,91,False,right,right,0.8535950183868408,958733,
9,92,False,left,left,0.5489401817321777,958733,
9,93,False,right,right,0.6871709823608398,958733,
9,94,True,left,left,0.5662190914154053,958733,
9,95,False,left,left,0.6507720947265625,958733,
9,96,False,left,right,0.848052978515625,958733,
9,97,True,left,right,0.7066521644592285,958733,
9,98,True,right,right,1.7683329582214355,958733,
9,99,False,left,left,1.2888379096984863,958733,
