condition,.thisRepN,.thisTrialN,.thisN,.thisIndex,block,trial,response,pair_id,chamber,threshold,
signal,0,-1,-1,0,1,0,8,9241,2,0.020469128356439128,
signal,0,-1,-1,0,1,1,8,9241,2,0.020469128356439128,
noise,0,-1,-1,0,1,2,8,9241,2,0.020469128356439128,
noise,0,-1,-1,0,1,3,7,9241,2,0.020469128356439128,
signal,0,-1,-1,0,1,4,7,9241,2,0.020469128356439128,
noise,0,-1,-1,0,1,5,8,9241,2,0.020469128356439128,
signal,0,-1,-1,0,1,6,7,9241,2,0.020469128356439128,
noise,0,-1,-1,0,1,7,8,9241,2,0.020469128356439128,
noise,0,-1,-1,0,1,8,8,9241,2,0.020469128356439128,
noise,0,-1,-1,0,1,9,noresponse,9241,2,0.020469128356439128,
noise,0,-1,-1,0,1,10,noresponse,9241,2,0.020469128356439128,
signal,0,-1,-1,0,1,11,7,9241,2,0.020469128356439128,
signal,0,-1,-1,0,1,12,8,9241,2,0.020469128356439128,
noise,0,-1,-1,0,1,13,7,9241,2,0.020469128356439128,
signal,0,-1,-1,0,1,14,noresponse,9241,2,0.020469128356439128,
noise,0,-1,-1,0,1,15,noresponse,9241,2,0.020469128356439128,
noise,0,-1,-1,0,1,16,7,9241,2,0.020469128356439128,
noise,0,-1,-1,0,1,17,noresponse,9241,2,0.020469128356439128,
noise,0,-1,-1,0,1,18,noresponse,9241,2,0.020469128356439128,
noise,0,-1,-1,0,1,19,7,9241,2,0.020469128356439128,
noise,0,-1,-1,0,1,20,noresponse,9241,2,0.020469128356439128,
signal,0,-1,-1,0,1,21,8,9241,2,0.020469128356439128,
signal,0,-1,-1,0,1,22,7,9241,2,0.020469128356439128,
noise,0,-1,-1,0,1,23,8,9241,2,0.020469128356439128,
signal,0,-1,-1,0,1,24,8,9241,2,0.020469128356439128,
noise,0,-1,-1,0,1,25,7,9241,2,0.020469128356439128,
signal,0,-1,-1,0,1,26,7,9241,2,0.020469128356439128,
noise,0,-1,-1,0,1,27,8,9241,2,0.020469128356439128,
signal,0,-1,-1,0,1,28,7,9241,2,0.020469128356439128,
signal,0,-1,-1,0,1,29,8,9241,2,0.020469128356439128,
signal,0,-1,-1,0,1,30,noresponse,9241,2,0.020469128356439128,
noise,0,-1,-1,0,1,31,noresponse,9241,2,0.020469128356439128,
signal,0,-1,-1,0,1,32,noresponse,9241,2,0.020469128356439128,
signal,0,-1,-1,0,1,33,8,9241,2,0.020469128356439128,
signal,0,-1,-1,0,1,34,noresponse,9241,2,0.020469128356439128,
signal,0,-1,-1,0,1,35,8,9241,2,0.020469128356439128,
signal,0,-1,-1,0,1,36,8,9241,2,0.020469128356439128,
noise,0,-1,-1,0,1,37,7,9241,2,0.020469128356439128,
noise,0,-1,-1,0,1,38,8,9241,2,0.020469128356439128,
signal,0,-1,-1,0,1,39,8,9241,2,0.020469128356439128,
signal,0,-1,-1,0,1,40,7,9241,2,0.020469128356439128,
noise,0,-1,-1,0,1,41,8,9241,2,0.020469128356439128,
signal,0,-1,-1,0,1,42,8,9241,2,0.020469128356439128,
noise,0,-1,-1,0,1,43,8,9241,2,0.020469128356439128,
noise,0,-1,-1,0,1,44,noresponse,9241,2,0.020469128356439128,
noise,0,-1,-1,0,1,45,7,9241,2,0.020469128356439128,
noise,0,-1,-1,0,1,46,noresponse,9241,2,0.020469128356439128,
noise,0,-1,-1,0,1,47,8,9241,2,0.020469128356439128,
signal,0,-1,-1,0,1,48,noresponse,9241,2,0.020469128356439128,
signal,0,-1,-1,0,1,49,7,9241,2,0.020469128356439128,
signal,0,-1,-1,0,1,50,8,9241,2,0.020469128356439128,
noise,0,-1,-1,0,1,51,8,9241,2,0.020469128356439128,
signal,0,-1,-1,0,1,52,8,9241,2,0.020469128356439128,
signal,0,-1,-1,0,1,53,7,9241,2,0.020469128356439128,
signal,0,-1,-1,0,1,54,7,9241,2,0.020469128356439128,
noise,0,-1,-1,0,1,55,8,9241,2,0.020469128356439128,
signal,0,-1,-1,0,1,56,7,9241,2,0.020469128356439128,
noise,0,-1,-1,0,1,57,8,9241,2,0.020469128356439128,
signal,0,-1,-1,0,1,58,7,9241,2,0.020469128356439128,
signal,0,-1,-1,0,1,59,7,9241,2,0.020469128356439128,
signal,0,-1,-1,0,1,60,7,9241,2,0.020469128356439128,
noise,0,-1,-1,0,1,61,8,9241,2,0.020469128356439128,
noise,0,-1,-1,0,1,62,8,9241,2,0.020469128356439128,
noise,0,-1,-1,0,1,63,8,9241,2,0.020469128356439128,
signal,0,-1,-1,0,1,64,7,9241,2,0.020469128356439128,
noise,0,-1,-1,0,1,65,8,9241,2,0.020469128356439128,
noise,0,-1,-1,0,1,66,7,9241,2,0.020469128356439128,
signal,0,-1,-1,0,1,67,8,9241,2,0.020469128356439128,
signal,0,-1,-1,0,1,68,7,9241,2,0.020469128356439128,
signal,0,-1,-1,0,1,69,7,9241,2,0.020469128356439128,
signal,0,-1,-1,0,1,70,7,9241,2,0.020469128356439128,
noise,0,-1,-1,0,1,71,8,9241,2,0.020469128356439128,
signal,0,-1,-1,0,1,72,8,9241,2,0.020469128356439128,
noise,0,-1,-1,0,1,73,8,9241,2,0.020469128356439128,
noise,0,-1,-1,0,1,74,8,9241,2,0.020469128356439128,
noise,0,-1,-1,0,1,75,8,9241,2,0.020469128356439128,
signal,0,-1,-1,0,1,76,8,9241,2,0.020469128356439128,
signal,0,-1,-1,0,1,77,7,9241,2,0.020469128356439128,
noise,0,-1,-1,0,1,78,8,9241,2,0.020469128356439128,
noise,0,-1,-1,0,1,79,8,9241,2,0.020469128356439128,
signal,0,-1,-1,0,2,0,8,9241,2,0.020469128356439128,
signal,0,-1,-1,0,2,1,8,9241,2,0.020469128356439128,
noise,0,-1,-1,0,2,2,8,9241,2,0.020469128356439128,
signal,0,-1,-1,0,2,3,8,9241,2,0.020469128356439128,
noise,0,-1,-1,0,2,4,8,9241,2,0.020469128356439128,
noise,0,-1,-1,0,2,5,8,9241,2,0.020469128356439128,
noise,0,-1,-1,0,2,6,7,9241,2,0.020469128356439128,
noise,0,-1,-1,0,2,7,7,9241,2,0.020469128356439128,
signal,0,-1,-1,0,2,8,7,9241,2,0.020469128356439128,
noise,0,-1,-1,0,2,9,8,9241,2,0.020469128356439128,
signal,0,-1,-1,0,2,10,8,9241,2,0.020469128356439128,
noise,0,-1,-1,0,2,11,7,9241,2,0.020469128356439128,
noise,0,-1,-1,0,2,12,8,9241,2,0.020469128356439128,
noise,0,-1,-1,0,2,13,8,9241,2,0.020469128356439128,
signal,0,-1,-1,0,2,14,7,9241,2,0.020469128356439128,
signal,0,-1,-1,0,2,15,8,9241,2,0.020469128356439128,
signal,0,-1,-1,0,2,16,7,9241,2,0.020469128356439128,
signal,0,-1,-1,0,2,17,8,9241,2,0.020469128356439128,
signal,0,-1,-1,0,2,18,7,9241,2,0.020469128356439128,
signal,0,-1,-1,0,2,19,7,9241,2,0.020469128356439128,
noise,0,-1,-1,0,2,20,8,9241,2,0.020469128356439128,
signal,0,-1,-1,0,2,21,8,9241,2,0.020469128356439128,
noise,0,-1,-1,0,2,22,8,9241,2,0.020469128356439128,
noise,0,-1,-1,0,2,23,8,9241,2,0.020469128356439128,
noise,0,-1,-1,0,2,24,8,9241,2,0.020469128356439128,
signal,0,-1,-1,0,2,25,7,9241,2,0.020469128356439128,
signal,0,-1,-1,0,2,26,7,9241,2,0.020469128356439128,
signal,0,-1,-1,0,2,27,7,9241,2,0.020469128356439128,
noise,0,-1,-1,0,2,28,8,9241,2,0.020469128356439128,
noise,0,-1,-1,0,2,29,8,9241,2,0.020469128356439128,
noise,0,-1,-1,0,2,30,8,9241,2,0.020469128356439128,
signal,0,-1,-1,0,2,31,7,9241,2,0.020469128356439128,
noise,0,-1,-1,0,2,32,8,9241,2,0.020469128356439128,
signal,0,-1,-1,0,2,33,7,9241,2,0.020469128356439128,
noise,0,-1,-1,0,2,34,8,9241,2,0.020469128356439128,
noise,0,-1,-1,0,2,35,8,9241,2,0.020469128356439128,
noise,0,-1,-1,0,2,36,8,9241,2,0.020469128356439128,
signal,0,-1,-1,0,2,37,7,9241,2,0.020469128356439128,
noise,0,-1,-1,0,2,38,8,9241,2,0.020469128356439128,
signal,0,-1,-1,0,2,39,7,9241,2,0.020469128356439128,
noise,0,-1,-1,0,2,40,8,9241,2,0.020469128356439128,
signal,0,-1,-1,0,2,41,8,9241,2,0.020469128356439128,
noise,0,-1,-1,0,2,42,8,9241,2,0.020469128356439128,
noise,0,-1,-1,0,2,43,8,9241,2,0.020469128356439128,
signal,0,-1,-1,0,2,44,7,9241,2,0.020469128356439128,
noise,0,-1,-1,0,2,45,8,9241,2,0.020469128356439128,
signal,0,-1,-1,0,2,46,7,9241,2,0.020469128356439128,
signal,0,-1,-1,0,2,47,8,9241,2,0.020469128356439128,
noise,0,-1,-1,0,2,48,8,9241,2,0.020469128356439128,
signal,0,-1,-1,0,2,49,7,9241,2,0.020469128356439128,
signal,0,-1,-1,0,2,50,7,9241,2,0.020469128356439128,
noise,0,-1,-1,0,2,51,8,9241,2,0.020469128356439128,
noise,0,-1,-1,0,2,52,8,9241,2,0.020469128356439128,
noise,0,-1,-1,0,2,53,8,9241,2,0.020469128356439128,
noise,0,-1,-1,0,2,54,7,9241,2,0.020469128356439128,
signal,0,-1,-1,0,2,55,8,9241,2,0.020469128356439128,
noise,0,-1,-1,0,2,56,8,9241,2,0.020469128356439128,
signal,0,-1,-1,0,2,57,7,9241,2,0.020469128356439128,
signal,0,-1,-1,0,2,58,7,9241,2,0.020469128356439128,
noise,0,-1,-1,0,2,59,8,9241,2,0.020469128356439128,
signal,0,-1,-1,0,2,60,7,9241,2,0.020469128356439128,
signal,0,-1,-1,0,2,61,8,9241,2,0.020469128356439128,
noise,0,-1,-1,0,2,62,8,9241,2,0.020469128356439128,
signal,0,-1,-1,0,2,63,7,9241,2,0.020469128356439128,
signal,0,-1,-1,0,2,64,7,9241,2,0.020469128356439128,
noise,0,-1,-1,0,2,65,8,9241,2,0.020469128356439128,
signal,0,-1,-1,0,2,66,8,9241,2,0.020469128356439128,
noise,0,-1,-1,0,2,67,8,9241,2,0.020469128356439128,
signal,0,-1,-1,0,2,68,7,9241,2,0.020469128356439128,
signal,0,-1,-1,0,2,69,7,9241,2,0.020469128356439128,
signal,0,-1,-1,0,2,70,7,9241,2,0.020469128356439128,
signal,0,-1,-1,0,2,71,8,9241,2,0.020469128356439128,
noise,0,-1,-1,0,2,72,8,9241,2,0.020469128356439128,
signal,0,-1,-1,0,2,73,7,9241,2,0.020469128356439128,
noise,0,-1,-1,0,2,74,8,9241,2,0.020469128356439128,
signal,0,-1,-1,0,2,75,7,9241,2,0.020469128356439128,
noise,0,-1,-1,0,2,76,noresponse,9241,2,0.020469128356439128,
noise,0,-1,-1,0,2,77,7,9241,2,0.020469128356439128,
noise,0,-1,-1,0,2,78,8,9241,2,0.020469128356439128,
signal,0,-1,-1,0,2,79,7,9241,2,0.020469128356439128,
signal,0,-1,-1,0,3,0,8,9241,2,0.020469128356439128,
noise,0,-1,-1,0,3,1,8,9241,2,0.020469128356439128,
noise,0,-1,-1,0,3,2,8,9241,2,0.020469128356439128,
noise,0,-1,-1,0,3,3,8,9241,2,0.020469128356439128,
noise,0,-1,-1,0,3,4,8,9241,2,0.020469128356439128,
noise,0,-1,-1,0,3,5,8,9241,2,0.020469128356439128,
noise,0,-1,-1,0,3,6,8,9241,2,0.020469128356439128,
signal,0,-1,-1,0,3,7,7,9241,2,0.020469128356439128,
noise,0,-1,-1,0,3,8,8,9241,2,0.020469128356439128,
signal,0,-1,-1,0,3,9,7,9241,2,0.020469128356439128,
signal,0,-1,-1,0,3,10,7,9241,2,0.020469128356439128,
signal,0,-1,-1,0,3,11,7,9241,2,0.020469128356439128,
signal,0,-1,-1,0,3,12,7,9241,2,0.020469128356439128,
signal,0,-1,-1,0,3,13,8,9241,2,0.020469128356439128,
signal,0,-1,-1,0,3,14,7,9241,2,0.020469128356439128,
noise,0,-1,-1,0,3,15,8,9241,2,0.020469128356439128,
noise,0,-1,-1,0,3,16,8,9241,2,0.020469128356439128,
signal,0,-1,-1,0,3,17,7,9241,2,0.020469128356439128,
noise,0,-1,-1,0,3,18,8,9241,2,0.020469128356439128,
signal,0,-1,-1,0,3,19,7,9241,2,0.020469128356439128,
signal,0,-1,-1,0,3,20,8,9241,2,0.020469128356439128,
noise,0,-1,-1,0,3,21,8,9241,2,0.020469128356439128,
noise,0,-1,-1,0,3,22,8,9241,2,0.020469128356439128,
signal,0,-1,-1,0,3,23,7,9241,2,0.020469128356439128,
signal,0,-1,-1,0,3,24,8,9241,2,0.020469128356439128,
signal,0,-1,-1,0,3,25,7,9241,2,0.020469128356439128,
signal,0,-1,-1,0,3,26,8,9241,2,0.020469128356439128,
noise,0,-1,-1,0,3,27,8,9241,2,0.020469128356439128,
signal,0,-1,-1,0,3,28,7,9241,2,0.020469128356439128,
signal,0,-1,-1,0,3,29,7,9241,2,0.020469128356439128,
noise,0,-1,-1,0,3,30,8,9241,2,0.020469128356439128,
noise,0,-1,-1,0,3,31,8,9241,2,0.020469128356439128,
signal,0,-1,-1,0,3,32,7,9241,2,0.020469128356439128,
noise,0,-1,-1,0,3,33,8,9241,2,0.020469128356439128,
noise,0,-1,-1,0,3,34,8,9241,2,0.020469128356439128,
noise,0,-1,-1,0,3,35,8,9241,2,0.020469128356439128,
signal,0,-1,-1,0,3,36,7,9241,2,0.020469128356439128,
signal,0,-1,-1,0,3,37,8,9241,2,0.020469128356439128,
noise,0,-1,-1,0,3,38,8,9241,2,0.020469128356439128,
noise,0,-1,-1,0,3,39,8,9241,2,0.020469128356439128,
signal,0,-1,-1,0,3,40,8,9241,2,0.020469128356439128,
signal,0,-1,-1,0,3,41,8,9241,2,0.020469128356439128,
signal,0,-1,-1,0,3,42,7,9241,2,0.020469128356439128,
signal,0,-1,-1,0,3,43,8,9241,2,0.020469128356439128,
signal,0,-1,-1,0,3,44,8,9241,2,0.020469128356439128,
signal,0,-1,-1,0,3,45,7,9241,2,0.020469128356439128,
noise,0,-1,-1,0,3,46,8,9241,2,0.020469128356439128,
signal,0,-1,-1,0,3,47,7,9241,2,0.020469128356439128,
noise,0,-1,-1,0,3,48,8,9241,2,0.020469128356439128,
noise,0,-1,-1,0,3,49,8,9241,2,0.020469128356439128,
noise,0,-1,-1,0,3,50,8,9241,2,0.020469128356439128,
signal,0,-1,-1,0,3,51,7,9241,2,0.020469128356439128,
noise,0,-1,-1,0,3,52,8,9241,2,0.020469128356439128,
noise,0,-1,-1,0,3,53,8,9241,2,0.020469128356439128,
signal,0,-1,-1,0,3,54,8,9241,2,0.020469128356439128,
noise,0,-1,-1,0,3,55,8,9241,2,0.020469128356439128,
signal,0,-1,-1,0,3,56,7,9241,2,0.020469128356439128,
noise,0,-1,-1,0,3,57,8,9241,2,0.020469128356439128,
signal,0,-1,-1,0,3,58,8,9241,2,0.020469128356439128,
signal,0,-1,-1,0,3,59,8,9241,2,0.020469128356439128,
signal,0,-1,-1,0,3,60,8,9241,2,0.020469128356439128,
noise,0,-1,-1,0,3,61,8,9241,2,0.020469128356439128,
noise,0,-1,-1,0,3,62,8,9241,2,0.020469128356439128,
noise,0,-1,-1,0,3,63,8,9241,2,0.020469128356439128,
signal,0,-1,-1,0,3,64,7,9241,2,0.020469128356439128,
noise,0,-1,-1,0,3,65,8,9241,2,0.020469128356439128,
noise,0,-1,-1,0,3,66,8,9241,2,0.020469128356439128,
noise,0,-1,-1,0,3,67,8,9241,2,0.020469128356439128,
noise,0,-1,-1,0,3,68,8,9241,2,0.020469128356439128,
signal,0,-1,-1,0,3,69,7,9241,2,0.020469128356439128,
signal,0,-1,-1,0,3,70,7,9241,2,0.020469128356439128,
signal,0,-1,-1,0,3,71,7,9241,2,0.020469128356439128,
noise,0,-1,-1,0,3,72,8,9241,2,0.020469128356439128,
noise,0,-1,-1,0,3,73,8,9241,2,0.020469128356439128,
signal,0,-1,-1,0,3,74,8,9241,2,0.020469128356439128,
noise,0,-1,-1,0,3,75,8,9241,2,0.020469128356439128,
noise,0,-1,-1,0,3,76,8,9241,2,0.020469128356439128,
signal,0,-1,-1,0,3,77,7,9241,2,0.020469128356439128,
signal,0,-1,-1,0,3,78,7,9241,2,0.020469128356439128,
noise,0,-1,-1,0,3,79,8,9241,2,0.020469128356439128,
signal,0,-1,-1,0,4,0,8,9241,2,0.020469128356439128,
noise,0,-1,-1,0,4,1,8,9241,2,0.020469128356439128,
signal,0,-1,-1,0,4,2,8,9241,2,0.020469128356439128,
noise,0,-1,-1,0,4,3,8,9241,2,0.020469128356439128,
signal,0,-1,-1,0,4,4,8,9241,2,0.020469128356439128,
signal,0,-1,-1,0,4,5,7,9241,2,0.020469128356439128,
signal,0,-1,-1,0,4,6,8,9241,2,0.020469128356439128,
noise,0,-1,-1,0,4,7,7,9241,2,0.020469128356439128,
signal,0,-1,-1,0,4,8,7,9241,2,0.020469128356439128,
signal,0,-1,-1,0,4,9,7,9241,2,0.020469128356439128,
signal,0,-1,-1,0,4,10,8,9241,2,0.020469128356439128,
noise,0,-1,-1,0,4,11,8,9241,2,0.020469128356439128,
signal,0,-1,-1,0,4,12,7,9241,2,0.020469128356439128,
signal,0,-1,-1,0,4,13,7,9241,2,0.020469128356439128,
noise,0,-1,-1,0,4,14,8,9241,2,0.020469128356439128,
noise,0,-1,-1,0,4,15,8,9241,2,0.020469128356439128,
noise,0,-1,-1,0,4,16,7,9241,2,0.020469128356439128,
signal,0,-1,-1,0,4,17,7,9241,2,0.020469128356439128,
noise,0,-1,-1,0,4,18,8,9241,2,0.020469128356439128,
signal,0,-1,-1,0,4,19,8,9241,2,0.020469128356439128,
signal,0,-1,-1,0,4,20,7,9241,2,0.020469128356439128,
noise,0,-1,-1,0,4,21,8,9241,2,0.020469128356439128,
noise,0,-1,-1,0,4,22,8,9241,2,0.020469128356439128,
signal,0,-1,-1,0,4,23,8,9241,2,0.020469128356439128,
noise,0,-1,-1,0,4,24,8,9241,2,0.020469128356439128,
noise,0,-1,-1,0,4,25,8,9241,2,0.020469128356439128,
noise,0,-1,-1,0,4,26,7,9241,2,0.020469128356439128,
signal,0,-1,-1,0,4,27,7,9241,2,0.020469128356439128,
signal,0,-1,-1,0,4,28,8,9241,2,0.020469128356439128,
noise,0,-1,-1,0,4,29,8,9241,2,0.020469128356439128,
noise,0,-1,-1,0,4,30,8,9241,2,0.020469128356439128,
signal,0,-1,-1,0,4,31,7,9241,2,0.020469128356439128,
signal,0,-1,-1,0,4,32,8,9241,2,0.020469128356439128,
noise,0,-1,-1,0,4,33,8,9241,2,0.020469128356439128,
noise,0,-1,-1,0,4,34,8,9241,2,0.020469128356439128,
noise,0,-1,-1,0,4,35,8,9241,2,0.020469128356439128,
noise,0,-1,-1,0,4,36,8,9241,2,0.020469128356439128,
noise,0,-1,-1,0,4,37,8,9241,2,0.020469128356439128,
noise,0,-1,-1,0,4,38,8,9241,2,0.020469128356439128,
noise,0,-1,-1,0,4,39,8,9241,2,0.020469128356439128,
signal,0,-1,-1,0,4,40,7,9241,2,0.020469128356439128,
signal,0,-1,-1,0,4,41,7,9241,2,0.020469128356439128,
noise,0,-1,-1,0,4,42,8,9241,2,0.020469128356439128,
signal,0,-1,-1,0,4,43,7,9241,2,0.020469128356439128,
signal,0,-1,-1,0,4,44,8,9241,2,0.020469128356439128,
signal,0,-1,-1,0,4,45,7,9241,2,0.020469128356439128,
noise,0,-1,-1,0,4,46,8,9241,2,0.020469128356439128,
noise,0,-1,-1,0,4,47,8,9241,2,0.020469128356439128,
noise,0,-1,-1,0,4,48,8,9241,2,0.020469128356439128,
signal,0,-1,-1,0,4,49,7,9241,2,0.020469128356439128,
signal,0,-1,-1,0,4,50,7,9241,2,0.020469128356439128,
noise,0,-1,-1,0,4,51,8,9241,2,0.020469128356439128,
signal,0,-1,-1,0,4,52,7,9241,2,0.020469128356439128,
noise,0,-1,-1,0,4,53,8,9241,2,0.020469128356439128,
signal,0,-1,-1,0,4,54,8,9241,2,0.020469128356439128,
noise,0,-1,-1,0,4,55,7,9241,2,0.020469128356439128,
signal,0,-1,-1,0,4,56,7,9241,2,0.020469128356439128,
signal,0,-1,-1,0,4,57,7,9241,2,0.020469128356439128,
noise,0,-1,-1,0,4,58,8,9241,2,0.020469128356439128,
noise,0,-1,-1,0,4,59,8,9241,2,0.020469128356439128,
signal,0,-1,-1,0,4,60,7,9241,2,0.020469128356439128,
noise,0,-1,-1,0,4,61,8,9241,2,0.020469128356439128,
noise,0,-1,-1,0,4,62,8,9241,2,0.020469128356439128,
signal,0,-1,-1,0,4,63,7,9241,2,0.020469128356439128,
noise,0,-1,-1,0,4,64,8,9241,2,0.020469128356439128,
signal,0,-1,-1,0,4,65,7,9241,2,0.020469128356439128,
signal,0,-1,-1,0,4,66,8,9241,2,0.020469128356439128,
noise,0,-1,-1,0,4,67,8,9241,2,0.020469128356439128,
signal,0,-1,-1,0,4,68,7,9241,2,0.020469128356439128,
signal,0,-1,-1,0,4,69,7,9241,2,0.020469128356439128,
noise,0,-1,-1,0,4,70,8,9241,2,0.020469128356439128,
noise,0,-1,-1,0,4,71,8,9241,2,0.020469128356439128,
signal,0,-1,-1,0,4,72,8,9241,2,0.020469128356439128,
signal,0,-1,-1,0,4,73,7,9241,2,0.020469128356439128,
signal,0,-1,-1,0,4,74,7,9241,2,0.020469128356439128,
noise,0,-1,-1,0,4,75,8,9241,2,0.020469128356439128,
noise,0,-1,-1,0,4,76,8,9241,2,0.020469128356439128,
signal,0,-1,-1,0,4,77,8,9241,2,0.020469128356439128,
noise,0,-1,-1,0,4,78,8,9241,2,0.020469128356439128,
signal,0,-1,-1,0,4,79,8,9241,2,0.020469128356439128,
noise,0,-1,-1,0,5,0,8,9241,2,0.020469128356439128,
signal,0,-1,-1,0,5,1,7,9241,2,0.020469128356439128,
noise,0,-1,-1,0,5,2,8,9241,2,0.020469128356439128,
signal,0,-1,-1,0,5,3,7,9241,2,0.020469128356439128,
signal,0,-1,-1,0,5,4,8,9241,2,0.020469128356439128,
signal,0,-1,-1,0,5,5,7,9241,2,0.020469128356439128,
signal,0,-1,-1,0,5,6,7,9241,2,0.020469128356439128,
signal,0,-1,-1,0,5,7,7,9241,2,0.020469128356439128,
signal,0,-1,-1,0,5,8,8,9241,2,0.020469128356439128,
signal,0,-1,-1,0,5,9,7,9241,2,0.020469128356439128,
signal,0,-1,-1,0,5,10,7,9241,2,0.020469128356439128,
signal,0,-1,-1,0,5,11,7,9241,2,0.020469128356439128,
noise,0,-1,-1,0,5,12,8,9241,2,0.020469128356439128,
noise,0,-1,-1,0,5,13,8,9241,2,0.020469128356439128,
signal,0,-1,-1,0,5,14,7,9241,2,0.020469128356439128,
signal,0,-1,-1,0,5,15,7,9241,2,0.020469128356439128,
noise,0,-1,-1,0,5,16,8,9241,2,0.020469128356439128,
signal,0,-1,-1,0,5,17,7,9241,2,0.020469128356439128,
signal,0,-1,-1,0,5,18,7,9241,2,0.020469128356439128,
signal,0,-1,-1,0,5,19,8,9241,2,0.020469128356439128,
noise,0,-1,-1,0,5,20,8,9241,2,0.020469128356439128,
noise,0,-1,-1,0,5,21,8,9241,2,0.020469128356439128,
signal,0,-1,-1,0,5,22,8,9241,2,0.020469128356439128,
noise,0,-1,-1,0,5,23,8,9241,2,0.020469128356439128,
noise,0,-1,-1,0,5,24,8,9241,2,0.020469128356439128,
signal,0,-1,-1,0,5,25,7,9241,2,0.020469128356439128,
noise,0,-1,-1,0,5,26,8,9241,2,0.020469128356439128,
signal,0,-1,-1,0,5,27,7,9241,2,0.020469128356439128,
noise,0,-1,-1,0,5,28,8,9241,2,0.020469128356439128,
signal,0,-1,-1,0,5,29,7,9241,2,0.020469128356439128,
signal,0,-1,-1,0,5,30,7,9241,2,0.020469128356439128,
noise,0,-1,-1,0,5,31,8,9241,2,0.020469128356439128,
noise,0,-1,-1,0,5,32,8,9241,2,0.020469128356439128,
noise,0,-1,-1,0,5,33,8,9241,2,0.020469128356439128,
noise,0,-1,-1,0,5,34,8,9241,2,0.020469128356439128,
noise,0,-1,-1,0,5,35,8,9241,2,0.020469128356439128,
signal,0,-1,-1,0,5,36,7,9241,2,0.020469128356439128,
noise,0,-1,-1,0,5,37,8,9241,2,0.020469128356439128,
signal,0,-1,-1,0,5,38,8,9241,2,0.020469128356439128,
noise,0,-1,-1,0,5,39,8,9241,2,0.020469128356439128,
signal,0,-1,-1,0,5,40,8,9241,2,0.020469128356439128,
noise,0,-1,-1,0,5,41,8,9241,2,0.020469128356439128,
signal,0,-1,-1,0,5,42,7,9241,2,0.020469128356439128,
signal,0,-1,-1,0,5,43,8,9241,2,0.020469128356439128,
noise,0,-1,-1,0,5,44,8,9241,2,0.020469128356439128,
noise,0,-1,-1,0,5,45,7,9241,2,0.020469128356439128,
noise,0,-1,-1,0,5,46,8,9241,2,0.020469128356439128,
noise,0,-1,-1,0,5,47,8,9241,2,0.020469128356439128,
noise,0,-1,-1,0,5,48,8,9241,2,0.020469128356439128,
signal,0,-1,-1,0,5,49,8,9241,2,0.020469128356439128,
noise,0,-1,-1,0,5,50,8,9241,2,0.020469128356439128,
signal,0,-1,-1,0,5,51,7,9241,2,0.020469128356439128,
signal,0,-1,-1,0,5,52,7,9241,2,0.020469128356439128,
signal,0,-1,-1,0,5,53,7,9241,2,0.020469128356439128,
noise,0,-1,-1,0,5,54,8,9241,2,0.020469128356439128,
signal,0,-1,-1,0,5,55,7,9241,2,0.020469128356439128,
signal,0,-1,-1,0,5,56,8,9241,2,0.020469128356439128,
noise,0,-1,-1,0,5,57,8,9241,2,0.020469128356439128,
noise,0,-1,-1,0,5,58,8,9241,2,0.020469128356439128,
noise,0,-1,-1,0,5,59,8,9241,2,0.020469128356439128,
noise,0,-1,-1,0,5,60,8,9241,2,0.020469128356439128,
noise,0,-1,-1,0,5,61,7,9241,2,0.020469128356439128,
noise,0,-1,-1,0,5,62,8,9241,2,0.020469128356439128,
signal,0,-1,-1,0,5,63,7,9241,2,0.020469128356439128,
signal,0,-1,-1,0,5,64,7,9241,2,0.020469128356439128,
noise,0,-1,-1,0,5,65,8,9241,2,0.020469128356439128,
signal,0,-1,-1,0,5,66,7,9241,2,0.020469128356439128,
signal,0,-1,-1,0,5,67,7,9241,2,0.020469128356439128,
signal,0,-1,-1,0,5,68,7,9241,2,0.020469128356439128,
noise,0,-1,-1,0,5,69,8,9241,2,0.020469128356439128,
noise,0,-1,-1,0,5,70,8,9241,2,0.020469128356439128,
signal,0,-1,-1,0,5,71,7,9241,2,0.020469128356439128,
signal,0,-1,-1,0,5,72,7,9241,2,0.020469128356439128,
noise,0,-1,-1,0,5,73,8,9241,2,0.020469128356439128,
noise,0,-1,-1,0,5,74,8,9241,2,0.020469128356439128,
noise,0,-1,-1,0,5,75,8,9241,2,0.020469128356439128,
noise,0,-1,-1,0,5,76,8,9241,2,0.020469128356439128,
signal,0,-1,-1,0,5,77,8,9241,2,0.020469128356439128,
signal,0,-1,-1,0,5,78,7,9241,2,0.020469128356439128,
noise,0,-1,-1,0,5,79,8,9241,2,0.020469128356439128,
signal,0,-1,-1,0,6,0,8,9241,2,0.020469128356439128,
noise,0,-1,-1,0,6,1,8,9241,2,0.020469128356439128,
noise,0,-1,-1,0,6,2,8,9241,2,0.020469128356439128,
signal,0,-1,-1,0,6,3,7,9241,2,0.020469128356439128,
noise,0,-1,-1,0,6,4,8,9241,2,0.020469128356439128,
noise,0,-1,-1,0,6,5,8,9241,2,0.020469128356439128,
signal,0,-1,-1,0,6,6,7,9241,2,0.020469128356439128,
signal,0,-1,-1,0,6,7,8,9241,2,0.020469128356439128,
noise,0,-1,-1,0,6,8,8,9241,2,0.020469128356439128,
noise,0,-1,-1,0,6,9,8,9241,2,0.020469128356439128,
noise,0,-1,-1,0,6,10,8,9241,2,0.020469128356439128,
signal,0,-1,-1,0,6,11,8,9241,2,0.020469128356439128,
noise,0,-1,-1,0,6,12,8,9241,2,0.020469128356439128,
noise,0,-1,-1,0,6,13,8,9241,2,0.020469128356439128,
noise,0,-1,-1,0,6,14,8,9241,2,0.020469128356439128,
signal,0,-1,-1,0,6,15,7,9241,2,0.020469128356439128,
noise,0,-1,-1,0,6,16,8,9241,2,0.020469128356439128,
signal,0,-1,-1,0,6,17,7,9241,2,0.020469128356439128,
noise,0,-1,-1,0,6,18,8,9241,2,0.020469128356439128,
signal,0,-1,-1,0,6,19,8,9241,2,0.020469128356439128,
signal,0,-1,-1,0,6,20,7,9241,2,0.020469128356439128,
noise,0,-1,-1,0,6,21,8,9241,2,0.020469128356439128,
signal,0,-1,-1,0,6,22,8,9241,2,0.020469128356439128,
signal,0,-1,-1,0,6,23,8,9241,2,0.020469128356439128,
signal,0,-1,-1,0,6,24,7,9241,2,0.020469128356439128,
signal,0,-1,-1,0,6,25,7,9241,2,0.020469128356439128,
noise,0,-1,-1,0,6,26,8,9241,2,0.020469128356439128,
noise,0,-1,-1,0,6,27,8,9241,2,0.020469128356439128,
signal,0,-1,-1,0,6,28,7,9241,2,0.020469128356439128,
noise,0,-1,-1,0,6,29,8,9241,2,0.020469128356439128,
noise,0,-1,-1,0,6,30,8,9241,2,0.020469128356439128,
noise,0,-1,-1,0,6,31,8,9241,2,0.020469128356439128,
noise,0,-1,-1,0,6,32,8,9241,2,0.020469128356439128,
signal,0,-1,-1,0,6,33,8,9241,2,0.020469128356439128,
signal,0,-1,-1,0,6,34,7,9241,2,0.020469128356439128,
noise,0,-1,-1,0,6,35,8,9241,2,0.020469128356439128,
signal,0,-1,-1,0,6,36,8,9241,2,0.020469128356439128,
noise,0,-1,-1,0,6,37,8,9241,2,0.020469128356439128,
signal,0,-1,-1,0,6,38,7,9241,2,0.020469128356439128,
noise,0,-1,-1,0,6,39,8,9241,2,0.020469128356439128,
signal,0,-1,-1,0,6,40,7,9241,2,0.020469128356439128,
signal,0,-1,-1,0,6,41,8,9241,2,0.020469128356439128,
noise,0,-1,-1,0,6,42,8,9241,2,0.020469128356439128,
noise,0,-1,-1,0,6,43,8,9241,2,0.020469128356439128,
signal,0,-1,-1,0,6,44,7,9241,2,0.020469128356439128,
noise,0,-1,-1,0,6,45,8,9241,2,0.020469128356439128,
noise,0,-1,-1,0,6,46,8,9241,2,0.020469128356439128,
noise,0,-1,-1,0,6,47,8,9241,2,0.020469128356439128,
noise,0,-1,-1,0,6,48,8,9241,2,0.020469128356439128,
noise,0,-1,-1,0,6,49,8,9241,2,0.020469128356439128,
signal,0,-1,-1,0,6,50,7,9241,2,0.020469128356439128,
signal,0,-1,-1,0,6,51,7,9241,2,0.020469128356439128,
signal,0,-1,-1,0,6,52,7,9241,2,0.020469128356439128,
signal,0,-1,-1,0,6,53,7,9241,2,0.020469128356439128,
noise,0,-1,-1,0,6,54,8,9241,2,0.020469128356439128,
noise,0,-1,-1,0,6,55,8,9241,2,0.020469128356439128,
noise,0,-1,-1,0,6,56,8,9241,2,0.020469128356439128,
signal,0,-1,-1,0,6,57,7,9241,2,0.020469128356439128,
noise,0,-1,-1,0,6,58,8,9241,2,0.020469128356439128,
signal,0,-1,-1,0,6,59,8,9241,2,0.020469128356439128,
noise,0,-1,-1,0,6,60,8,9241,2,0.020469128356439128,
signal,0,-1,-1,0,6,61,7,9241,2,0.020469128356439128,
noise,0,-1,-1,0,6,62,8,9241,2,0.020469128356439128,
signal,0,-1,-1,0,6,63,8,9241,2,0.020469128356439128,
noise,0,-1,-1,0,6,64,8,9241,2,0.020469128356439128,
signal,0,-1,-1,0,6,65,8,9241,2,0.020469128356439128,
signal,0,-1,-1,0,6,66,7,9241,2,0.020469128356439128,
signal,0,-1,-1,0,6,67,7,9241,2,0.020469128356439128,
signal,0,-1,-1,0,6,68,8,9241,2,0.020469128356439128,
signal,0,-1,-1,0,6,69,7,9241,2,0.020469128356439128,
signal,0,-1,-1,0,6,70,8,9241,2,0.020469128356439128,
noise,0,-1,-1,0,6,71,8,9241,2,0.020469128356439128,
noise,0,-1,-1,0,6,72,8,9241,2,0.020469128356439128,
signal,0,-1,-1,0,6,73,8,9241,2,0.020469128356439128,
signal,0,-1,-1,0,6,74,8,9241,2,0.020469128356439128,
signal,0,-1,-1,0,6,75,8,9241,2,0.020469128356439128,
signal,0,-1,-1,0,6,76,7,9241,2,0.020469128356439128,
signal,0,-1,-1,0,6,77,8,9241,2,0.020469128356439128,
noise,0,-1,-1,0,6,78,8,9241,2,0.020469128356439128,
noise,0,-1,-1,0,6,79,8,9241,2,0.020469128356439128,
noise,0,-1,-1,0,7,0,8,9241,2,0.020469128356439128,
noise,0,-1,-1,0,7,1,8,9241,2,0.020469128356439128,
signal,0,-1,-1,0,7,2,7,9241,2,0.020469128356439128,
noise,0,-1,-1,0,7,3,8,9241,2,0.020469128356439128,
signal,0,-1,-1,0,7,4,8,9241,2,0.020469128356439128,
signal,0,-1,-1,0,7,5,8,9241,2,0.020469128356439128,
signal,0,-1,-1,0,7,6,8,9241,2,0.020469128356439128,
signal,0,-1,-1,0,7,7,7,9241,2,0.020469128356439128,
signal,0,-1,-1,0,7,8,8,9241,2,0.020469128356439128,
noise,0,-1,-1,0,7,9,8,9241,2,0.020469128356439128,
signal,0,-1,-1,0,7,10,8,9241,2,0.020469128356439128,
signal,0,-1,-1,0,7,11,7,9241,2,0.020469128356439128,
noise,0,-1,-1,0,7,12,8,9241,2,0.020469128356439128,
signal,0,-1,-1,0,7,13,8,9241,2,0.020469128356439128,
signal,0,-1,-1,0,7,14,7,9241,2,0.020469128356439128,
noise,0,-1,-1,0,7,15,8,9241,2,0.020469128356439128,
noise,0,-1,-1,0,7,16,8,9241,2,0.020469128356439128,
signal,0,-1,-1,0,7,17,7,9241,2,0.020469128356439128,
noise,0,-1,-1,0,7,18,8,9241,2,0.020469128356439128,
noise,0,-1,-1,0,7,19,8,9241,2,0.020469128356439128,
signal,0,-1,-1,0,7,20,8,9241,2,0.020469128356439128,
noise,0,-1,-1,0,7,21,8,9241,2,0.020469128356439128,
noise,0,-1,-1,0,7,22,8,9241,2,0.020469128356439128,
signal,0,-1,-1,0,7,23,7,9241,2,0.020469128356439128,
noise,0,-1,-1,0,7,24,8,9241,2,0.020469128356439128,
noise,0,-1,-1,0,7,25,8,9241,2,0.020469128356439128,
noise,0,-1,-1,0,7,26,8,9241,2,0.020469128356439128,
signal,0,-1,-1,0,7,27,7,9241,2,0.020469128356439128,
signal,0,-1,-1,0,7,28,7,9241,2,0.020469128356439128,
noise,0,-1,-1,0,7,29,8,9241,2,0.020469128356439128,
signal,0,-1,-1,0,7,30,7,9241,2,0.020469128356439128,
noise,0,-1,-1,0,7,31,8,9241,2,0.020469128356439128,
noise,0,-1,-1,0,7,32,8,9241,2,0.020469128356439128,
signal,0,-1,-1,0,7,33,8,9241,2,0.020469128356439128,
noise,0,-1,-1,0,7,34,7,9241,2,0.020469128356439128,
noise,0,-1,-1,0,7,35,8,9241,2,0.020469128356439128,
noise,0,-1,-1,0,7,36,8,9241,2,0.020469128356439128,
signal,0,-1,-1,0,7,37,8,9241,2,0.020469128356439128,
signal,0,-1,-1,0,7,38,7,9241,2,0.020469128356439128,
signal,0,-1,-1,0,7,39,7,9241,2,0.020469128356439128,
signal,0,-1,-1,0,7,40,7,9241,2,0.020469128356439128,
noise,0,-1,-1,0,7,41,8,9241,2,0.020469128356439128,
signal,0,-1,-1,0,7,42,7,9241,2,0.020469128356439128,
signal,0,-1,-1,0,7,43,8,9241,2,0.020469128356439128,
signal,0,-1,-1,0,7,44,8,9241,2,0.020469128356439128,
noise,0,-1,-1,0,7,45,8,9241,2,0.020469128356439128,
noise,0,-1,-1,0,7,46,8,9241,2,0.020469128356439128,
signal,0,-1,-1,0,7,47,7,9241,2,0.020469128356439128,
signal,0,-1,-1,0,7,48,7,9241,2,0.020469128356439128,
noise,0,-1,-1,0,7,49,8,9241,2,0.020469128356439128,
signal,0,-1,-1,0,7,50,8,9241,2,0.020469128356439128,
signal,0,-1,-1,0,7,51,7,9241,2,0.020469128356439128,
noise,0,-1,-1,0,7,52,8,9241,2,0.020469128356439128,
noise,0,-1,-1,0,7,53,8,9241,2,0.020469128356439128,
signal,0,-1,-1,0,7,54,8,9241,2,0.020469128356439128,
noise,0,-1,-1,0,7,55,8,9241,2,0.020469128356439128,
signal,0,-1,-1,0,7,56,8,9241,2,0.020469128356439128,
signal,0,-1,-1,0,7,57,7,9241,2,0.020469128356439128,
noise,0,-1,-1,0,7,58,8,9241,2,0.020469128356439128,
noise,0,-1,-1,0,7,59,8,9241,2,0.020469128356439128,
noise,0,-1,-1,0,7,60,8,9241,2,0.020469128356439128,
noise,0,-1,-1,0,7,61,8,9241,2,0.020469128356439128,
signal,0,-1,-1,0,7,62,7,9241,2,0.020469128356439128,
noise,0,-1,-1,0,7,63,8,9241,2,0.020469128356439128,
noise,0,-1,-1,0,7,64,8,9241,2,0.020469128356439128,
noise,0,-1,-1,0,7,65,8,9241,2,0.020469128356439128,
noise,0,-1,-1,0,7,66,8,9241,2,0.020469128356439128,
signal,0,-1,-1,0,7,67,8,9241,2,0.020469128356439128,
noise,0,-1,-1,0,7,68,8,9241,2,0.020469128356439128,
signal,0,-1,-1,0,7,69,7,9241,2,0.020469128356439128,
signal,0,-1,-1,0,7,70,7,9241,2,0.020469128356439128,
noise,0,-1,-1,0,7,71,8,9241,2,0.020469128356439128,
signal,0,-1,-1,0,7,72,8,9241,2,0.020469128356439128,
signal,0,-1,-1,0,7,73,7,9241,2,0.020469128356439128,
noise,0,-1,-1,0,7,74,8,9241,2,0.020469128356439128,
signal,0,-1,-1,0,7,75,7,9241,2,0.020469128356439128,
noise,0,-1,-1,0,7,76,8,9241,2,0.020469128356439128,
noise,0,-1,-1,0,7,77,8,9241,2,0.020469128356439128,
signal,0,-1,-1,0,7,78,7,9241,2,0.020469128356439128,
signal,0,-1,-1,0,7,79,8,9241,2,0.020469128356439128,
noise,0,0,0,13,8,0,8,9241,2,0.020469128356439128,
signal,0,1,1,24,8,1,8,9241,2,0.020469128356439128,
noise,0,2,2,33,8,2,8,9241,2,0.020469128356439128,
noise,0,3,3,1,8,3,8,9241,2,0.020469128356439128,
noise,0,4,4,9,8,4,8,9241,2,0.020469128356439128,
noise,0,5,5,45,8,5,8,9241,2,0.020469128356439128,
signal,0,6,6,18,8,6,8,9241,2,0.020469128356439128,
signal,0,7,7,8,8,7,7,9241,2,0.020469128356439128,
signal,0,8,8,6,8,8,8,9241,2,0.020469128356439128,
signal,0,9,9,26,8,9,7,9241,2,0.020469128356439128,
signal,0,10,10,44,8,10,8,9241,2,0.020469128356439128,
noise,0,11,11,43,8,11,8,9241,2,0.020469128356439128,
signal,0,12,12,32,8,12,7,9241,2,0.020469128356439128,
signal,0,13,13,68,8,13,7,9241,2,0.020469128356439128,
noise,0,14,14,51,8,14,8,9241,2,0.020469128356439128,
signal,0,15,15,14,8,15,7,9241,2,0.020469128356439128,
signal,0,16,16,46,8,16,7,9241,2,0.020469128356439128,
signal,0,17,17,54,8,17,8,9241,2,0.020469128356439128,
noise,0,18,18,39,8,18,8,9241,2,0.020469128356439128,
noise,0,19,19,77,8,19,8,9241,2,0.020469128356439128,
signal,0,20,20,48,8,20,7,9241,2,0.020469128356439128,
signal,0,21,21,12,8,21,8,9241,2,0.020469128356439128,
noise,0,22,22,5,8,22,8,9241,2,0.020469128356439128,
noise,0,23,23,75,8,23,8,9241,2,0.020469128356439128,
noise,0,24,24,63,8,24,7,9241,2,0.020469128356439128,
noise,0,25,25,21,8,25,8,9241,2,0.020469128356439128,
noise,0,26,26,67,8,26,8,9241,2,0.020469128356439128,
signal,0,27,27,50,8,27,8,9241,2,0.020469128356439128,
signal,0,28,28,66,8,28,8,9241,2,0.020469128356439128,
signal,0,29,29,64,8,29,8,9241,2,0.020469128356439128,
noise,0,30,30,3,8,30,8,9241,2,0.020469128356439128,
signal,0,31,31,20,8,31,7,9241,2,0.020469128356439128,
noise,0,32,32,71,8,32,8,9241,2,0.020469128356439128,
noise,0,33,33,19,8,33,7,9241,2,0.020469128356439128,
noise,0,34,34,69,8,34,8,9241,2,0.020469128356439128,
noise,0,35,35,11,8,35,8,9241,2,0.020469128356439128,
signal,0,36,36,4,8,36,8,9241,2,0.020469128356439128,
noise,0,37,37,59,8,37,8,9241,2,0.020469128356439128,
noise,0,38,38,61,8,38,8,9241,2,0.020469128356439128,
noise,0,39,39,57,8,39,8,9241,2,0.020469128356439128,
noise,0,40,40,53,8,40,8,9241,2,0.020469128356439128,
signal,0,41,41,52,8,41,8,9241,2,0.020469128356439128,
noise,0,42,42,65,8,42,8,9241,2,0.020469128356439128,
noise,0,43,43,23,8,43,8,9241,2,0.020469128356439128,
signal,0,44,44,72,8,44,7,9241,2,0.020469128356439128,
noise,0,45,45,49,8,45,7,9241,2,0.020469128356439128,
noise,0,46,46,31,8,46,8,9241,2,0.020469128356439128,
signal,0,47,47,42,8,47,8,9241,2,0.020469128356439128,
signal,0,48,48,28,8,48,7,9241,2,0.020469128356439128,
signal,0,49,49,16,8,49,7,9241,2,0.020469128356439128,
noise,0,50,50,41,8,50,8,9241,2,0.020469128356439128,
signal,0,51,51,10,8,51,7,9241,2,0.020469128356439128,
signal,0,52,52,62,8,52,8,9241,2,0.020469128356439128,
noise,0,53,53,29,8,53,8,9241,2,0.020469128356439128,
signal,0,54,54,74,8,54,7,9241,2,0.020469128356439128,
noise,0,55,55,17,8,55,8,9241,2,0.020469128356439128,
noise,0,56,56,15,8,56,8,9241,2,0.020469128356439128,
noise,0,57,57,79,8,57,8,9241,2,0.020469128356439128,
noise,0,58,58,37,8,58,7,9241,2,0.020469128356439128,
signal,0,59,59,78,8,59,7,9241,2,0.020469128356439128,
signal,0,60,60,40,8,60,8,9241,2,0.020469128356439128,
noise,0,61,61,25,8,61,8,9241,2,0.020469128356439128,
signal,0,62,62,70,8,62,7,9241,2,0.020469128356439128,
signal,0,63,63,34,8,63,8,9241,2,0.020469128356439128,
signal,0,64,64,56,8,64,7,9241,2,0.020469128356439128,
signal,0,65,65,60,8,65,8,9241,2,0.020469128356439128,
signal,0,66,66,36,8,66,8,9241,2,0.020469128356439128,
noise,0,67,67,47,8,67,8,9241,2,0.020469128356439128,
signal,0,68,68,76,8,68,7,9241,2,0.020469128356439128,
signal,0,69,69,0,8,69,7,9241,2,0.020469128356439128,
noise,0,70,70,73,8,70,8,9241,2,0.020469128356439128,
signal,0,71,71,22,8,71,8,9241,2,0.020469128356439128,
noise,0,72,72,27,8,72,7,9241,2,0.020469128356439128,
signal,0,73,73,38,8,73,8,9241,2,0.020469128356439128,
noise,0,74,74,35,8,74,8,9241,2,0.020469128356439128,
signal,0,75,75,58,8,75,7,9241,2,0.020469128356439128,
noise,0,76,76,7,8,76,8,9241,2,0.020469128356439128,
noise,0,77,77,55,8,77,8,9241,2,0.020469128356439128,
signal,0,78,78,2,8,78,8,9241,2,0.020469128356439128,
signal,0,79,79,30,8,79,8,9241,2,0.020469128356439128,
