condition,.thisRepN,.thisTrialN,.thisN,.thisIndex,block,trial,s1_state,response,rt,pair,
noise,0,-1,-1,0,1,0,False,no,1.2544748783111572,55,
signal,0,-1,-1,0,1,1,False,yes,0.7301950454711914,55,
noise,0,-1,-1,0,1,2,False,no,0.7922208309173584,55,
noise,0,-1,-1,0,1,3,True,no,1.5974221229553223,55,
signal,0,-1,-1,0,1,4,False,yes,0.8309509754180908,55,
noise,0,-1,-1,0,1,5,True,no,1.137692928314209,55,
signal,0,-1,-1,0,1,6,True,yes,1.061589002609253,55,
noise,0,-1,-1,0,1,7,False,no,0.8046050071716309,55,
noise,0,-1,-1,0,1,8,True,no,0.8903999328613281,55,
signal,0,-1,-1,0,1,9,True,no,0.7803840637207031,55,
noise,0,-1,-1,0,1,10,False,no,0.910261869430542,55,
noise,0,-1,-1,0,1,11,False,no,0.9742178916931152,55,
noise,0,-1,-1,0,1,12,False,no,0.742318868637085,55,
signal,0,-1,-1,0,1,13,False,no,0.7173418998718262,55,
noise,0,-1,-1,0,1,14,True,no,1.0021378993988037,55,
signal,0,-1,-1,0,1,15,True,yes,0.6480929851531982,55,
noise,0,-1,-1,0,1,16,False,no,0.8624470233917236,55,
noise,0,-1,-1,0,1,17,False,no,0.8857359886169434,55,
noise,0,-1,-1,0,1,18,False,no,0.7383551597595215,55,
signal,0,-1,-1,0,1,19,True,yes,0.7519989013671875,55,
signal,0,-1,-1,0,1,20,False,yes,0.7009508609771729,55,
noise,0,-1,-1,0,1,21,True,no,0.9029300212860107,55,
signal,0,-1,-1,0,1,22,True,yes,0.7042531967163086,55,
noise,0,-1,-1,0,1,23,False,no,0.7951970100402832,55,
signal,0,-1,-1,0,1,24,True,yes,0.8933489322662354,55,
signal,0,-1,-1,0,1,25,True,yes,0.5727620124816895,55,
noise,0,-1,-1,0,1,26,True,no,0.898888111114502,55,
signal,0,-1,-1,0,1,27,True,yes,0.5483748912811279,55,
signal,0,-1,-1,0,1,28,False,yes,0.7929749488830566,55,
signal,0,-1,-1,0,1,29,False,yes,0.8633852005004883,55,
signal,0,-1,-1,0,1,30,True,yes,0.6611089706420898,55,
signal,0,-1,-1,0,1,31,False,yes,0.5433120727539062,55,
noise,0,-1,-1,0,1,32,True,no,0.8073599338531494,55,
signal,0,-1,-1,0,1,33,True,yes,0.8143091201782227,55,
signal,0,-1,-1,0,1,34,True,yes,0.9542670249938965,55,
signal,0,-1,-1,0,1,35,True,yes,0.7775120735168457,55,
noise,0,-1,-1,0,1,36,True,no,0.7631549835205078,55,
signal,0,-1,-1,0,1,37,False,yes,0.7080531120300293,55,
noise,0,-1,-1,0,1,38,False,no,0.9156420230865479,55,
noise,0,-1,-1,0,1,39,False,no,0.8613591194152832,55,
noise,0,-1,-1,0,1,40,True,no,0.8593959808349609,55,
noise,0,-1,-1,0,1,41,False,no,0.7912180423736572,55,
signal,0,-1,-1,0,1,42,False,yes,0.8421778678894043,55,
signal,0,-1,-1,0,1,43,True,yes,0.7188189029693604,55,
signal,0,-1,-1,0,1,44,False,yes,0.5964879989624023,55,
noise,0,-1,-1,0,1,45,True,no,0.8577868938446045,55,
signal,0,-1,-1,0,1,46,True,yes,0.7712819576263428,55,
noise,0,-1,-1,0,1,47,True,no,0.9650719165802002,55,
noise,0,-1,-1,0,1,48,False,no,0.6620841026306152,55,
noise,0,-1,-1,0,1,49,False,yes,0.8084039688110352,55,
noise,0,-1,-1,0,1,50,False,no,0.8805739879608154,55,
signal,0,-1,-1,0,1,51,False,no,0.6983258724212646,55,
noise,0,-1,-1,0,1,52,False,no,0.7216579914093018,55,
signal,0,-1,-1,0,1,53,False,yes,0.6569359302520752,55,
noise,0,-1,-1,0,1,54,False,no,0.6466360092163086,55,
signal,0,-1,-1,0,1,55,True,no,1.3431401252746582,55,
signal,0,-1,-1,0,1,56,True,yes,0.6860899925231934,55,
signal,0,-1,-1,0,1,57,False,yes,0.7928571701049805,55,
signal,0,-1,-1,0,1,58,True,no,0.7012109756469727,55,
noise,0,-1,-1,0,1,59,False,no,0.9190058708190918,55,
signal,0,-1,-1,0,2,0,True,yes,1.5935118198394775,55,
signal,0,-1,-1,0,2,1,True,yes,0.796018123626709,55,
signal,0,-1,-1,0,2,2,True,yes,0.7358608245849609,55,
noise,0,-1,-1,0,2,3,False,no,0.8100190162658691,55,
signal,0,-1,-1,0,2,4,False,yes,0.9543750286102295,55,
signal,0,-1,-1,0,2,5,False,yes,0.6385159492492676,55,
signal,0,-1,-1,0,2,6,False,yes,0.9116301536560059,55,
noise,0,-1,-1,0,2,7,True,no,0.9676690101623535,55,
signal,0,-1,-1,0,2,8,False,yes,0.9028449058532715,55,
noise,0,-1,-1,0,2,9,False,no,0.7374091148376465,55,
signal,0,-1,-1,0,2,10,False,yes,0.7607438564300537,55,
noise,0,-1,-1,0,2,11,True,no,0.8073501586914062,55,
noise,0,-1,-1,0,2,12,False,no,0.7303180694580078,55,
signal,0,-1,-1,0,2,13,False,yes,0.790410041809082,55,
noise,0,-1,-1,0,2,14,True,no,0.7678439617156982,55,
signal,0,-1,-1,0,2,15,True,no,0.7407670021057129,55,
signal,0,-1,-1,0,2,16,False,yes,0.6390621662139893,55,
noise,0,-1,-1,0,2,17,False,no,0.7849700450897217,55,
signal,0,-1,-1,0,2,18,True,yes,0.9581329822540283,55,
noise,0,-1,-1,0,2,19,True,no,0.7391238212585449,55,
signal,0,-1,-1,0,2,20,True,yes,0.8511202335357666,55,
noise,0,-1,-1,0,2,21,False,no,0.7523770332336426,55,
noise,0,-1,-1,0,2,22,False,no,0.7397019863128662,55,
noise,0,-1,-1,0,2,23,False,no,0.8101329803466797,55,
noise,0,-1,-1,0,2,24,True,no,0.9010939598083496,55,
signal,0,-1,-1,0,2,25,False,yes,0.7248139381408691,55,
signal,0,-1,-1,0,2,26,True,yes,0.7758522033691406,55,
signal,0,-1,-1,0,2,27,True,yes,0.8731880187988281,55,
signal,0,-1,-1,0,2,28,True,yes,0.8411381244659424,55,
signal,0,-1,-1,0,2,29,True,yes,0.6646029949188232,55,
noise,0,-1,-1,0,2,30,False,no,0.618948221206665,55,
signal,0,-1,-1,0,2,31,False,yes,0.5786941051483154,55,
signal,0,-1,-1,0,2,32,True,yes,0.6959309577941895,55,
noise,0,-1,-1,0,2,33,True,no,1.0385429859161377,55,
signal,0,-1,-1,0,2,34,True,no,0.9415349960327148,55,
noise,0,-1,-1,0,2,35,True,no,0.792881965637207,55,
signal,0,-1,-1,0,2,36,False,yes,0.9814839363098145,55,
noise,0,-1,-1,0,2,37,False,no,0.77292799949646,55,
signal,0,-1,-1,0,2,38,True,no,1.0071017742156982,55,
signal,0,-1,-1,0,2,39,False,yes,0.8166887760162354,55,
noise,0,-1,-1,0,2,40,False,yes,1.1102449893951416,55,
signal,0,-1,-1,0,2,41,True,no,1.4000298976898193,55,
noise,0,-1,-1,0,2,42,False,no,1.0988759994506836,55,
signal,0,-1,-1,0,2,43,True,yes,0.704240083694458,55,
noise,0,-1,-1,0,2,44,False,no,0.7933409214019775,55,
signal,0,-1,-1,0,2,45,True,yes,1.0683670043945312,55,
noise,0,-1,-1,0,2,46,False,no,0.7488689422607422,55,
noise,0,-1,-1,0,2,47,True,no,0.7364389896392822,55,
noise,0,-1,-1,0,2,48,True,no,0.8048110008239746,55,
noise,0,-1,-1,0,2,49,False,no,0.8247890472412109,55,
noise,0,-1,-1,0,2,50,True,no,0.7266240119934082,55,
noise,0,-1,-1,0,2,51,False,no,0.726099967956543,55,
noise,0,-1,-1,0,2,52,True,no,0.6061139106750488,55,
noise,0,-1,-1,0,2,53,False,no,0.7875938415527344,55,
noise,0,-1,-1,0,2,54,True,no,0.5822889804840088,55,
signal,0,-1,-1,0,2,55,True,no,0.7566170692443848,55,
noise,0,-1,-1,0,2,56,False,yes,1.2560160160064697,55,
signal,0,-1,-1,0,2,57,True,yes,1.1139709949493408,55,
noise,0,-1,-1,0,2,58,False,no,0.9628241062164307,55,
signal,0,-1,-1,0,2,59,False,yes,0.7777879238128662,55,
signal,0,-1,-1,0,3,0,False,yes,1.8685638904571533,55,
noise,0,-1,-1,0,3,1,False,no,0.7246518135070801,55,
signal,0,-1,-1,0,3,2,False,no,0.8367609977722168,55,
signal,0,-1,-1,0,3,3,True,yes,0.9486138820648193,55,
noise,0,-1,-1,0,3,4,True,no,0.8460400104522705,55,
noise,0,-1,-1,0,3,5,False,no,0.7752828598022461,55,
noise,0,-1,-1,0,3,6,False,yes,1.0075888633728027,55,
noise,0,-1,-1,0,3,7,True,no,0.8694839477539062,55,
signal,0,-1,-1,0,3,8,True,yes,0.7394700050354004,55,
noise,0,-1,-1,0,3,9,False,no,0.7411460876464844,55,
signal,0,-1,-1,0,3,10,True,yes,0.7846300601959229,55,
noise,0,-1,-1,0,3,11,True,no,0.6082119941711426,55,
noise,0,-1,-1,0,3,12,True,no,0.7580301761627197,55,
signal,0,-1,-1,0,3,13,True,yes,0.8331658840179443,55,
noise,0,-1,-1,0,3,14,False,no,0.7724940776824951,55,
noise,0,-1,-1,0,3,15,True,no,0.8691079616546631,55,
signal,0,-1,-1,0,3,16,True,yes,1.241225004196167,55,
signal,0,-1,-1,0,3,17,False,yes,1.112896203994751,55,
signal,0,-1,-1,0,3,18,False,no,1.258847951889038,55,
noise,0,-1,-1,0,3,19,True,no,0.956082820892334,55,
noise,0,-1,-1,0,3,20,False,no,0.7758951187133789,55,
signal,0,-1,-1,0,3,21,False,no,1.2437810897827148,55,
noise,0,-1,-1,0,3,22,False,no,1.0699009895324707,55,
signal,0,-1,-1,0,3,23,False,yes,1.0302469730377197,55,
signal,0,-1,-1,0,3,24,False,yes,0.8294308185577393,55,
signal,0,-1,-1,0,3,25,False,yes,1.3485310077667236,55,
noise,0,-1,-1,0,3,26,True,no,0.8503649234771729,55,
signal,0,-1,-1,0,3,27,True,yes,0.844959020614624,55,
noise,0,-1,-1,0,3,28,False,no,0.8538579940795898,55,
signal,0,-1,-1,0,3,29,False,yes,0.8926680088043213,55,
noise,0,-1,-1,0,3,30,False,no,1.2646729946136475,55,
noise,0,-1,-1,0,3,31,False,no,1.165809154510498,55,
noise,0,-1,-1,0,3,32,True,no,0.7893240451812744,55,
noise,0,-1,-1,0,3,33,False,no,0.9463880062103271,55,
signal,0,-1,-1,0,3,34,True,yes,0.7283787727355957,55,
noise,0,-1,-1,0,3,35,True,no,0.8948779106140137,55,
signal,0,-1,-1,0,3,36,False,yes,1.3635120391845703,55,
signal,0,-1,-1,0,3,37,False,yes,1.33489990234375,55,
noise,0,-1,-1,0,3,38,True,no,1.630730152130127,55,
signal,0,-1,-1,0,3,39,True,yes,0.7229020595550537,55,
signal,0,-1,-1,0,3,40,False,yes,1.0300049781799316,55,
signal,0,-1,-1,0,3,41,True,yes,0.9436829090118408,55,
signal,0,-1,-1,0,3,42,True,yes,0.677778959274292,55,
noise,0,-1,-1,0,3,43,False,no,1.0891761779785156,55,
noise,0,-1,-1,0,3,44,True,no,0.8294169902801514,55,
signal,0,-1,-1,0,3,45,True,yes,0.7127530574798584,55,
signal,0,-1,-1,0,3,46,False,yes,1.0009069442749023,55,
noise,0,-1,-1,0,3,47,True,no,0.7859899997711182,55,
signal,0,-1,-1,0,3,48,False,yes,0.933082103729248,55,
noise,0,-1,-1,0,3,49,False,no,0.9780340194702148,55,
noise,0,-1,-1,0,3,50,True,no,0.8135778903961182,55,
noise,0,-1,-1,0,3,51,True,no,0.8047921657562256,55,
signal,0,-1,-1,0,3,52,False,yes,0.9837250709533691,55,
noise,0,-1,-1,0,3,53,True,no,0.8025789260864258,55,
noise,0,-1,-1,0,3,54,False,no,1.0717570781707764,55,
signal,0,-1,-1,0,3,55,False,yes,0.8273320198059082,55,
signal,0,-1,-1,0,3,56,False,yes,0.769514799118042,55,
signal,0,-1,-1,0,3,57,False,yes,0.7129149436950684,55,
signal,0,-1,-1,0,3,58,True,no,1.0147738456726074,55,
noise,0,-1,-1,0,3,59,True,no,0.7054660320281982,55,
noise,0,0,0,57,4,0,True,no,0.7564108371734619,55,
noise,0,1,1,13,4,1,True,no,0.7000250816345215,55,
signal,0,2,2,22,4,2,False,no,0.9148619174957275,55,
signal,0,3,3,16,4,3,True,no,0.9977169036865234,55,
signal,0,4,4,28,4,4,True,no,0.9126489162445068,55,
noise,0,5,5,17,4,5,True,no,0.6606428623199463,55,
signal,0,6,6,12,4,6,True,no,0.9828660488128662,55,
noise,0,7,7,7,4,7,False,no,0.991156816482544,55,
noise,0,8,8,49,4,8,True,no,0.6640110015869141,55,
signal,0,9,9,10,4,9,False,yes,0.9395740032196045,55,
noise,0,10,10,47,4,10,False,no,0.9365420341491699,55,
noise,0,11,11,11,4,11,True,no,0.7355978488922119,55,
noise,0,12,12,15,4,12,True,no,0.5469090938568115,55,
signal,0,13,13,34,4,13,True,yes,0.9075379371643066,55,
noise,0,14,14,37,4,14,False,no,0.9272499084472656,55,
signal,0,15,15,8,4,15,True,yes,0.8005959987640381,55,
noise,0,16,16,53,4,16,False,no,0.7264628410339355,55,
signal,0,17,17,56,4,17,False,yes,1.1451561450958252,55,
signal,0,18,18,52,4,18,False,yes,0.9079768657684326,55,
signal,0,19,19,42,4,19,False,yes,1.0217649936676025,55,
noise,0,20,20,3,4,20,False,no,0.7087230682373047,55,
signal,0,21,21,14,4,21,True,yes,0.8418819904327393,55,
noise,0,22,22,33,4,22,True,no,0.7620561122894287,55,
noise,0,23,23,35,4,23,False,no,0.853950023651123,55,
signal,0,24,24,36,4,24,False,yes,1.0658230781555176,55,
signal,0,25,25,50,4,25,True,no,0.8503408432006836,55,
signal,0,26,26,46,4,26,False,yes,1.2950260639190674,55,
noise,0,27,27,9,4,27,True,no,0.7719390392303467,55,
noise,0,28,28,1,4,28,False,no,0.8819789886474609,55,
signal,0,29,29,4,4,29,True,no,1.0371959209442139,55,
noise,0,30,30,31,4,30,True,no,0.685222864151001,55,
noise,0,31,31,51,4,31,True,no,0.7718551158905029,55,
noise,0,32,32,23,4,32,False,no,0.6608140468597412,55,
noise,0,33,33,59,4,33,False,no,0.857043981552124,55,
noise,0,34,34,55,4,34,True,no,0.7241971492767334,55,
signal,0,35,35,20,4,35,True,yes,0.7730488777160645,55,
signal,0,36,36,58,4,36,True,yes,1.020522117614746,55,
noise,0,37,37,5,4,37,False,no,0.8232629299163818,55,
signal,0,38,38,2,4,38,False,yes,1.050163984298706,55,
signal,0,39,39,30,4,39,False,yes,0.8136141300201416,55,
noise,0,40,40,25,4,40,True,no,0.7468998432159424,55,
noise,0,41,41,43,4,41,False,no,0.8160998821258545,55,
signal,0,42,42,32,4,42,True,no,1.310405969619751,55,
signal,0,43,43,48,4,43,False,yes,0.6969339847564697,55,
noise,0,44,44,29,4,44,True,yes,0.6992268562316895,55,
signal,0,45,45,6,4,45,True,yes,0.9676711559295654,55,
signal,0,46,46,38,4,46,True,yes,0.7330620288848877,55,
noise,0,47,47,45,4,47,False,no,0.7597899436950684,55,
noise,0,48,48,41,4,48,False,no,0.5810978412628174,55,
signal,0,49,49,40,4,49,False,no,0.8373010158538818,55,
noise,0,50,50,39,4,50,True,no,0.802570104598999,55,
signal,0,51,51,18,4,51,False,yes,1.035978078842163,55,
signal,0,52,52,44,4,52,False,yes,0.9451408386230469,55,
signal,0,53,53,24,4,53,True,yes,0.8131771087646484,55,
noise,0,54,54,19,4,54,False,no,0.6902189254760742,55,
signal,0,55,55,26,4,55,False,yes,0.9752509593963623,55,
noise,0,56,56,27,4,56,True,no,1.0246779918670654,55,
noise,0,57,57,21,4,57,True,no,0.843641996383667,55,
signal,0,58,58,0,4,58,True,no,0.818263053894043,55,
signal,0,59,59,54,4,59,False,yes,1.1192810535430908,55,
